time,accX,accY,accZ,ang_velX,ang_velY,ang_velZ
0,-0.9693603515625,0.31640625,0.0633544921875,1.46484375,-1.46484375,-0.6103515625
121,-0.9688720703125,0.32177734375,0.051025390625,0.54931640625,-1.52587890625,-1.708984375
223,-0.96240234375,0.3125,0.0521240234375,0.79345703125,-0.6103515625,-1.03759765625
335,-0.9727783203125,0.31201171875,0.0538330078125,2.62451171875,0.48828125,-1.708984375
447,-0.9595947265625,0.3165283203125,0.060791015625,1.5869140625,-0.30517578125,-0.3662109375
557,-0.969970703125,0.3177490234375,0.0667724609375,0.42724609375,-0.48828125,0.67138671875
675,-0.96484375,0.3077392578125,0.0615234375,1.708984375,-0.91552734375,1.52587890625
788,-0.977294921875,0.3150634765625,0.062744140625,2.50244140625,0.48828125,-0.1220703125
900,-0.964599609375,0.302978515625,0.0772705078125,2.197265625,-0.1220703125,-2.01416015625
1012,-0.951416015625,0.3153076171875,0.0687255859375,2.0751953125,-1.77001953125,-2.0751953125
1122,-0.91259765625,0.4012451171875,0.0556640625,-0.6103515625,-2.0751953125,1.708984375
1233,-0.989013671875,0.3331298828125,0.047119140625,-26.55029296875,-3.96728515625,7.62939453125
1346,-0.9716796875,0.30224609375,0.048583984375,-10.25390625,-2.44140625,1.220703125
1459,-1.044921875,0.3013916015625,0.1065673828125,10.31494140625,-4.33349609375,2.9296875
1572,-1.060791015625,0.5731201171875,-0.122802734375,31.67724609375,-14.09912109375,26.42822265625
1684,-0.974609375,0.3497314453125,-0.0595703125,223.14453125,14.22119140625,-25.5126953125
1798,-0.9188232421875,-0.3421630859375,-0.11279296875,194.15283203125,-15.5029296875,2.86865234375
1909,-1.14013671875,-0.0255126953125,-0.03369140625,-65.7958984375,-12.0849609375,27.7099609375
2025,-1.11083984375,0.013427734375,-0.0426025390625,10.92529296875,-21.17919921875,33.203125
2140,-0.9698486328125,-0.1075439453125,0.2474365234375,39.48974609375,-15.31982421875,10.986328125
2252,-1.006103515625,-0.1307373046875,0.13427734375,29.052734375,-37.78076171875,1.8310546875
2357,-0.99658203125,-0.118896484375,0.103271484375,1.52587890625,-60.05859375,19.59228515625
2473,-1.072265625,-0.116943359375,-0.018798828125,31.8603515625,-100.9521484375,30.029296875
2585,-1.5462646484375,0.435791015625,0.8939208984375,118.59130859375,-147.15576171875,52.6123046875
2759,-0.8837890625,-0.10498046875,0.4774169921875,-11.53564453125,68.2373046875,31.31103515625
2867,-0.9144287109375,0.378173828125,-0.2152099609375,-9.46044921875,272.5830078125,-93.1396484375
2984,-2.028076171875,-0.1455078125,-0.93603515625,-33.3251953125,296.56982421875,-96.923828125
3096,-0.6170654296875,-0.7103271484375,-2.18310546875,-116.0888671875,5.4931640625,21.1181640625
3314,-1.030517578125,-0.1944580078125,0.20849609375,1.15966796875,-60.24169921875,34.36279296875
3490,-1.0738525390625,-0.01953125,0.02880859375,24.90234375,-89.7216796875,21.17919921875
3658,-1.6806640625,0.6666259765625,0.3416748046875,3.47900390625,-159.72900390625,11.23046875
3826,-1.4447021484375,0.31396484375,0.5655517578125,-70.00732421875,-10.1318359375,27.77099609375
3989,-1.23095703125,0.14013671875,-0.23779296875,-35.58349609375,308.4716796875,-114.501953125
4107,-2.0511474609375,-0.5904541015625,-1.6602783203125,60.546875,284.60693359375,-58.04443359375
4218,-2.9486083984375,2.678466796875,3.99951171875,94.970703125,8.85009765625,43.212890625
4325,-1.1214599609375,-0.0408935546875,0.0911865234375,15.869140625,-61.03515625,54.38232421875
4442,-1.088134765625,-0.0267333984375,-0.076904296875,34.0576171875,-84.716796875,24.71923828125
4610,-1.12939453125,-0.076171875,-0.139404296875,55.7861328125,-128.173828125,23.3154296875
4782,-1.2822265625,-1.5338134765625,-0.625,83.251953125,-180.2978515625,62.98828125
4894,-0.6273193359375,0.2166748046875,0.080810546875,-84.89990234375,173.9501953125,-56.33544921875
5058,-1.43359375,0.110107421875,-0.1947021484375,-83.80126953125,293.701171875,-145.01953125
5176,-1.92822265625,-0.5501708984375,-1.216796875,32.2265625,263.3056640625,-48.583984375
5289,-1.85791015625,1.53759765625,2.87939453125,12.0849609375,-31.92138671875,50.4150390625
5400,-1.0299072265625,-0.096923828125,0.2586669921875,-0.67138671875,-60.9130859375,31.43310546875
5511,-0.8809814453125,-0.21435546875,0.255859375,7.38525390625,-73.73046875,19.47021484375
5626,-1.0423583984375,0.00244140625,0.0968017578125,36.2548828125,-92.8955078125,27.7099609375
5735,-1.3160400390625,0.2161865234375,-0.137939453125,40.95458984375,-164.97802734375,26.18408203125
5961,-0.7777099609375,-0.0325927734375,-0.262939453125,-85.99853515625,257.75146484375,-98.08349609375
6189,-2.0291748046875,-0.430419921875,-0.8802490234375,42.29736328125,299.6826171875,-100.28076171875
6299,-1.2327880859375,0.286376953125,1.826171875,-15.19775390625,-47.30224609375,59.2041015625
6412,-1.0283203125,-0.08154296875,-0.0379638671875,22.39990234375,-75.74462890625,51.26953125
6525,-1.0111083984375,-0.0135498046875,0.1064453125,14.09912109375,-39.97802734375,16.357421875
6749,-1.0994873046875,-0.1470947265625,-0.10107421875,59.814453125,-107.666015625,29.6630859375
6859,-1.760009765625,0.9149169921875,0.4378662109375,11.8408203125,-174.1943359375,15.7470703125
6976,-1.974365234375,0.3017578125,0.7261962890625,15.07568359375,-122.37548828125,61.21826171875
7201,-2.439697265625,-0.1151123046875,-0.758544921875,-23.49853515625,332.03125,-92.7734375
7309,-0.529052734375,-1.29443359375,-2.6478271484375,-98.388671875,20.99609375,23.92578125
7427,-1.4913330078125,-0.5833740234375,-0.1446533203125,116.943359375,-72.3876953125,74.3408203125
7592,-0.9635009765625,-0.0272216796875,0.2645263671875,23.13232421875,-67.7490234375,19.4091796875
7762,-1.1165771484375,-0.0166015625,0.019775390625,32.8369140625,-86.669921875,30.2734375
7873,-1.29052734375,0.124755859375,-0.2000732421875,53.466796875,-143.1884765625,22.39990234375
8042,-1.8695068359375,0.256591796875,0.5872802734375,42.78564453125,-128.35693359375,63.90380859375
8153,-0.887939453125,0.037109375,0.0025634765625,-23.74267578125,270.3857421875,-86.669921875
8268,-2.26953125,0.1263427734375,-0.7601318359375,-30.76171875,339.41650390625,-92.6513671875
8433,-2.2462158203125,1.4771728515625,2.5941162109375,31.92138671875,-17.08984375,52.1240234375
8550,-1.121337890625,0.0555419921875,0.16259765625,56.0302734375,-55.5419921875,48.76708984375
8662,-0.91455078125,-0.0902099609375,0.3228759765625,26.67236328125,-67.81005859375,16.05224609375
8827,-1.076416015625,0.0657958984375,-0.0841064453125,5.4931640625,-96.3134765625,22.39990234375
9001,-1.593994140625,-0.84326171875,0.9029541015625,162.2314453125,-172.36328125,60.36376953125
9113,-0.685546875,-0.8341064453125,-0.990234375,-64.39208984375,-18.12744140625,27.9541015625
9342,-2.102294921875,-0.0107421875,-0.9202880859375,-30.517578125,334.8388671875,-117.1875
9445,-0.7059326171875,-0.578857421875,-2.3203125,-96.00830078125,109.0087890625,9.94873046875
9567,-2.0985107421875,1.1617431640625,0.3966064453125,18.06640625,-82.763671875,50.72021484375
9672,-0.9288330078125,-0.063720703125,0.3056640625,24.4140625,-57.6171875,38.6962890625
9786,-0.971435546875,-0.088134765625,0.1949462890625,15.869140625,-69.9462890625,15.869140625
9901,-1.0869140625,0.0025634765625,-0.00341796875,43.88427734375,-106.75048828125,21.240234375
10012,-1.5113525390625,0.33447265625,-0.1148681640625,25.0244140625,-155.45654296875,15.13671875
10124,-1.345458984375,-1.18408203125,-0.927734375,11.77978515625,-199.40185546875,60.60791015625
10236,-1.14892578125,0.3946533203125,0.587158203125,-27.16064453125,26.42822265625,-10.43701171875
10349,-0.9122314453125,-0.1712646484375,-0.1239013671875,-94.482421875,276.79443359375,-88.9892578125
10462,-2.1446533203125,0.1937255859375,-0.52587890625,-45.166015625,322.3876953125,-109.2529296875
10575,-0.4495849609375,-0.7789306640625,-2.5931396484375,-144.4091796875,-36.92626953125,34.48486328125
10687,-1.8402099609375,0.226318359375,-0.7572021484375,8.9111328125,-100.15869140625,45.47119140625
10803,-0.98681640625,-0.04248046875,0.1595458984375,17.9443359375,-71.044921875,14.34326171875
10969,-1.0853271484375,-0.0406494140625,-0.00927734375,38.0859375,-90.02685546875,22.3388671875
11136,-1.686279296875,0.959716796875,0.4755859375,-4.0283203125,-164.73388671875,12.0849609375
11252,-1.9716796875,0.0118408203125,0.3011474609375,85.63232421875,-99.365234375,60.24169921875
11420,-0.7286376953125,-0.087890625,-0.0740966796875,-27.7099609375,262.75634765625,-74.70703125
11532,-2.6348876953125,-0.4134521484375,-0.552734375,-21.3623046875,337.70751953125,-104.736328125
11645,-0.5194091796875,-0.888671875,-2.5087890625,-159.60693359375,-17.822265625,34.60693359375
11758,-1.2181396484375,-0.0743408203125,-0.022705078125,2.99072265625,-77.45361328125,44.25048828125
11869,-1.01220703125,0.02392578125,0.0390625,-2.5634765625,-40.10009765625,15.869140625
12040,-1.07958984375,-0.0535888671875,0.0985107421875,29.78515625,-78.18603515625,18.24951171875
12153,-1.3370361328125,0.1561279296875,-0.1541748046875,43.51806640625,-154.052734375,21.54541015625
12259,-1.5206298828125,-1.201416015625,0.239501953125,153.564453125,-175.537109375,62.92724609375
12377,-1.177734375,0.0621337890625,0.50146484375,-0.6103515625,-4.57763671875,33.02001953125
12545,-1.3995361328125,0.1234130859375,-0.200927734375,-82.763671875,312.92724609375,-112.1826171875
12657,-0.5396728515625,-0.909912109375,-2.414794921875,-135.80322265625,0.6103515625,30.33447265625
12769,-1.480712890625,0.091552734375,-0.44384765625,35.888671875,-133.1787109375,79.89501953125
12885,-1.0626220703125,-0.141357421875,-0.0501708984375,-15.0146484375,-48.27880859375,26.3671875
13104,-1.049072265625,0.0535888671875,0.0758056640625,31.73828125,-86.97509765625,25.45166015625
13222,-1.3878173828125,0.1124267578125,-0.2281494140625,47.7294921875,-164.61181640625,23.3154296875
13387,-2.1278076171875,0.170166015625,0.1597900390625,55.419921875,-101.318359375,68.66455078125
13613,-2.0869140625,0.1844482421875,-0.3089599609375,-21.17919921875,313.720703125,-110.29052734375
13728,-0.649169921875,-0.9122314453125,-2.47900390625,-92.10205078125,126.0986328125,3.96728515625
13837,-2.38720703125,0.649169921875,-0.1468505859375,48.03466796875,-84.77783203125,61.58447265625
13949,-0.998779296875,-0.104248046875,0.218017578125,12.0849609375,-57.80029296875,35.400390625
14062,-1.022705078125,-0.0120849609375,0.145751953125,2.38037109375,-39.9169921875,16.05224609375
14231,-1.1043701171875,0.0582275390625,-0.0604248046875,45.166015625,-99.06005859375,19.59228515625
14344,-1.5379638671875,0.2589111328125,-0.0677490234375,10.8642578125,-153.13720703125,7.75146484375
14454,-1.7554931640625,-0.181640625,0.13232421875,70.37353515625,-103.08837890625,67.138671875
14684,-1.615234375,0.0640869140625,-0.103271484375,-68.603515625,333.740234375,-99.7314453125
14793,-0.84521484375,-0.4097900390625,-1.9471435546875,-70.4345703125,216.00341796875,-18.06640625
14910,-0.572509765625,-0.4791259765625,-1.110595703125,-50.048828125,-84.65576171875,52.8564453125
15021,-1.1490478515625,-0.045654296875,-0.0211181640625,28.6865234375,-75.68359375,41.93115234375
15133,-1.0472412109375,0.0054931640625,0.033203125,5.615234375,-37.53662109375,19.83642578125
15243,-0.964599609375,-0.124755859375,0.18896484375,28.564453125,-55.908203125,18.6767578125
15360,-1.207275390625,0.0345458984375,-0.1566162109375,37.29248046875,-118.22509765625,23.5595703125
15468,-1.3330078125,-1.0579833984375,0.2275390625,139.16015625,-157.2265625,66.7724609375
15588,-1.1011962890625,-0.3369140625,0.0213623046875,-33.69140625,-13.97705078125,47.91259765625
15696,-0.8797607421875,0.016357421875,-0.0848388671875,-58.10546875,246.03271484375,-64.27001953125
15803,-1.9012451171875,-0.0037841796875,-0.4990234375,6.65283203125,300.048828125,-125.244140625
15922,-0.6507568359375,-0.8536376953125,-2.3736572265625,-91.85791015625,102.1728515625,0.3662109375
16034,-1.325439453125,0.586669921875,-0.1600341796875,37.41455078125,-107.91015625,69.4580078125
16201,-1.1090087890625,-0.0093994140625,0.00439453125,4.638671875,-38.02490234375,26.2451171875
16370,-1.02197265625,0.0614013671875,-0.02587890625,37.2314453125,-87.21923828125,18.37158203125
16479,-1.58447265625,0.3521728515625,-0.0238037109375,5.0048828125,-149.71923828125,13.5498046875
16600,-1.784423828125,-1.2894287109375,-1.0057373046875,67.0166015625,-208.43505859375,71.35009765625
16711,-0.6478271484375,0.177978515625,0.196533203125,-137.51220703125,152.89306640625,-24.169921875
16935,-2.1064453125,-0.2208251953125,-0.578369140625,-9.8876953125,311.5234375,-106.3232421875
17047,-0.5482177734375,-0.5628662109375,-2.3944091796875,-100.76904296875,-9.94873046875,32.28759765625
17159,-1.53515625,-0.37646484375,-0.6212158203125,58.9599609375,-113.83056640625,78.43017578125
17269,-1.0491943359375,-0.052734375,-0.029052734375,-0.3662109375,-48.33984375,17.9443359375
17387,-1.008544921875,-0.0462646484375,0.0858154296875,25.08544921875,-52.3681640625,18.5546875
17498,-1.0396728515625,-0.0740966796875,-0.1170654296875,39.61181640625,-108.154296875,22.76611328125
17611,-1.666748046875,0.4765625,0.225341796875,-15.2587890625,-155.1513671875,12.87841796875
17723,-2.0587158203125,-0.0787353515625,-0.1961669921875,3.0517578125,-155.3955078125,78.67431640625
17837,-0.206298828125,-0.348876953125,0.35302734375,-85.87646484375,151.123046875,0.3662109375
17945,-1.2015380859375,0.1602783203125,-0.1864013671875,-99.2431640625,310.9130859375,-82.33642578125
18061,-2.599609375,-0.344482421875,-1.4041748046875,-16.90673828125,278.01513671875,-95.21484375
18171,-2.28076171875,-0.048828125,0.52197265625,25.634765625,-78.7353515625,47.18017578125
18280,-0.97509765625,-0.0692138671875,0.2425537109375,8.97216796875,-65.73486328125,37.59765625
18396,-0.99267578125,-0.047607421875,0.1561279296875,11.04736328125,-62.5,13.916015625
18565,-1.0986328125,0.085205078125,-0.139404296875,37.41455078125,-100.52490234375,19.83642578125
18677,-1.571044921875,0.26025390625,0.0018310546875,30.82275390625,-163.57421875,17.27294921875
18848,-1.0052490234375,-0.227783203125,0.4656982421875,92.4072265625,-49.86572265625,49.1943359375
19013,-0.970947265625,-0.1378173828125,-0.13037109375,-29.60205078125,290.1611328125,-73.73046875
19125,-0.775390625,-0.68798828125,-2.26806640625,-75.37841796875,221.86279296875,-30.1513671875
19237,-0.5548095703125,-0.4107666015625,-0.8419189453125,-0.79345703125,-69.03076171875,44.73876953125
19411,-1.10595703125,-0.0269775390625,0.042724609375,13.7939453125,-50.72021484375,26.3671875
19521,-0.890380859375,-0.205078125,0.149169921875,-3.7841796875,-50.29296875,19.04296875
19633,-1.0125732421875,-0.0595703125,-0.0030517578125,19.95849609375,-80.62744140625,20.1416015625
19746,-1.4755859375,0.201171875,-0.1878662109375,39.48974609375,-157.71484375,13.00048828125
19860,-1.365478515625,-2.5233154296875,0.0557861328125,181.45751953125,-186.767578125,58.59375
19973,-0.5076904296875,0.0615234375,0.228515625,-78.7353515625,164.306640625,-8.36181640625
20139,-1.9703369140625,0.2200927734375,-0.49072265625,15.380859375,314.697265625,-90.087890625
20252,-0.477783203125,-0.69140625,-3.018310546875,-214.29443359375,27.28271484375,2.685546875
20365,-1.4949951171875,0.0125732421875,-0.62646484375,66.95556640625,-116.0888671875,56.82373046875
20478,-1.11572265625,-0.2269287109375,-0.0025634765625,35.94970703125,-68.29833984375,33.203125
20590,-1.082275390625,-0.0941162109375,0.045654296875,46.44775390625,-51.1474609375,22.4609375
20760,-1.087646484375,0.0079345703125,-0.0736083984375,41.259765625,-113.70849609375,23.0712890625
20923,-1.7667236328125,0.0872802734375,0.33984375,49.25537109375,-106.75048828125,60.97412109375
21091,-1.6593017578125,0.04296875,-0.1527099609375,-50.47607421875,323.42529296875,-120.54443359375
21265,-0.7047119140625,-0.5439453125,-2.459716796875,-184.75341796875,-73.8525390625,51.025390625
21431,-1.431396484375,-0.7801513671875,-0.291259765625,48.828125,-116.943359375,93.75
21547,-1.1182861328125,-0.123291015625,-0.1556396484375,17.822265625,-54.8095703125,36.1328125
21662,-0.9891357421875,-0.061279296875,0.107177734375,22.88818359375,-31.18896484375,16.90673828125
21775,-1.1767578125,-0.07763671875,-0.1771240234375,41.50390625,-110.107421875,26.42822265625
21938,-1.51171875,-1.0234375,0.6470947265625,172.4853515625,-165.771484375,77.880859375
22055,-0.649169921875,-1.0458984375,0.1988525390625,8.1787109375,-29.052734375,38.87939453125
22277,-1.9005126953125,0.2845458984375,-0.1607666015625,-87.95166015625,304.13818359375,-117.919921875
22389,-0.5750732421875,-1.0654296875,-2.860107421875,-87.95166015625,89.17236328125,23.681640625
22504,-2.787841796875,0.6417236328125,-0.109619140625,-58.7158203125,-138.5498046875,71.71630859375
22616,-1.0540771484375,-0.2294921875,0.0123291015625,26.611328125,-58.2275390625,40.34423828125
22729,-0.93017578125,-0.1868896484375,0.174560546875,1.0986328125,-64.208984375,14.892578125
22842,-1.0660400390625,-0.02099609375,-0.064208984375,37.29248046875,-103.21044921875,26.42822265625
22957,-1.5909423828125,0.4329833984375,0.1134033203125,7.8125,-159.60693359375,26.18408203125
23124,-0.8572998046875,-1.0760498046875,-0.58203125,44.73876953125,-25.93994140625,65.24658203125
23237,-0.75146484375,0.0391845703125,0.0047607421875,-12.3291015625,251.40380859375,-66.89453125
23349,-2.21923828125,-0.0357666015625,-0.5391845703125,-33.14208984375,338.07373046875,-101.01318359375
23456,-0.70751953125,-0.8677978515625,-2.9530029296875,-48.828125,39.85595703125,22.39990234375
23569,-2.803955078125,-0.04248046875,0.2911376953125,5.9814453125,-80.26123046875,40.0390625
23682,-0.95458984375,-0.0345458984375,0.2381591796875,29.9072265625,-57.80029296875,13.00048828125
23798,-1.2452392578125,0.1669921875,-0.1376953125,9.46044921875,-94.482421875,18.24951171875
23964,-1.350830078125,0.18408203125,-0.0810546875,46.142578125,-155.029296875,25.57373046875
24077,-1.7379150390625,-1.3167724609375,0.7080078125,209.53369140625,-189.27001953125,69.15283203125
24190,-1.2657470703125,0.20361328125,0.737548828125,-32.71484375,18.1884765625,20.81298828125
24360,-1.416015625,0.2186279296875,-0.190673828125,-77.63671875,330.99365234375,-108.82568359375
24472,-1.345703125,-0.8004150390625,-1.814697265625,-3.23486328125,274.35302734375,-21.54541015625
24584,-1.7427978515625,0.2191162109375,-0.701904296875,31.55517578125,-92.95654296875,52.8564453125
24697,-0.9425048828125,-0.03857421875,0.2933349609375,19.71435546875,-61.46240234375,26.79443359375
24807,-1.0203857421875,0.01416015625,-0.0040283203125,10.07080078125,-88.37890625,20.20263671875
24921,-1.0150146484375,-0.06396484375,-0.036865234375,47.607421875,-107.23876953125,28.564453125
25096,-2.356201171875,1.4630126953125,1.2117919921875,79.9560546875,-205.2001953125,28.86962890625
25204,-0.7879638671875,-1.3895263671875,-0.4783935546875,107.5439453125,-15.56396484375,56.2744140625
25424,-2.7181396484375,-0.8621826171875,-1.748046875,-5.4931640625,311.03515625,-99.06005859375
25597,-2.5147705078125,0.521240234375,-0.3243408203125,-23.37646484375,-131.4697265625,70.4345703125
25709,-1.118896484375,-0.18310546875,-0.1114501953125,2.197265625,-73.66943359375,43.5791015625
25821,-1.0792236328125,-0.0166015625,-0.005859375,1.77001953125,-39.36767578125,11.53564453125
25993,-1.107421875,-0.0416259765625,-0.0164794921875,38.63525390625,-94.17724609375,24.23095703125
26106,-1.60595703125,0.4765625,0.1600341796875,-12.02392578125,-162.29248046875,24.10888671875
26219,-3.2689208984375,-0.3973388671875,-1.550537109375,14.09912109375,-221.86279296875,75.86669921875
26332,-0.611328125,0.2286376953125,0.005126953125,-37.90283203125,226.6845703125,-77.94189453125
26498,-2.377197265625,-0.8533935546875,-1.4107666015625,-86.181640625,274.90234375,-112.3046875
26607,-1.9854736328125,0.7984619140625,0.40625,-19.34814453125,-127.62451171875,58.837890625
26833,-1.0892333984375,-0.07763671875,0.0333251953125,5.859375,-35.2783203125,17.4560546875
27005,-0.98876953125,0.0279541015625,-0.02099609375,-1.953125,-74.70703125,13.427734375
27116,-1.2896728515625,0.1614990234375,-0.10888671875,32.3486328125,-143.798828125,24.59716796875
27230,-2.1292724609375,0.8468017578125,1.1351318359375,142.08984375,-174.13330078125,47.30224609375
27343,-0.225341796875,-0.30126953125,0.2919921875,-24.10888671875,134.09423828125,11.90185546875
27513,-1.8682861328125,0.0849609375,-0.4027099609375,-19.287109375,325.13427734375,-110.53466796875
27625,-0.946044921875,-0.7357177734375,-2.1981201171875,-27.28271484375,180.5419921875,-3.5400390625
27739,-2.26708984375,1.6458740234375,-0.683349609375,-153.25927734375,-140.380859375,35.09521484375
27846,-1.1229248046875,-0.068359375,-0.00341796875,26.91650390625,-77.0263671875,37.9638671875
27960,-1.0555419921875,-0.005615234375,0.0098876953125,1.03759765625,-42.724609375,16.357421875
28131,-0.9705810546875,-0.0093994140625,-0.0205078125,47.91259765625,-80.2001953125,20.44677734375
28241,-2.124267578125,1.0294189453125,0.9112548828125,43.8232421875,-184.326171875,30.21240234375
28354,-1.6580810546875,0.217529296875,0.7532958984375,91.4306640625,-41.07666015625,51.57470703125
28633,-2.586669921875,-0.245361328125,-1.2169189453125,16.05224609375,325.439453125,-90.02685546875
28748,-0.9796142578125,-0.5872802734375,-2.337890625,-145.263671875,-124.08447265625,51.20849609375
28858,-1.2197265625,0.3172607421875,-0.5548095703125,25.81787109375,-115.966796875,44.43359375
28973,-1.0989990234375,-0.0467529296875,0.0946044921875,-1.708984375,-52.001953125,14.0380859375
29089,-1.025390625,-0.0352783203125,0.0450439453125,28.1982421875,-67.138671875,16.54052734375
29254,-1.4632568359375,0.1680908203125,-0.14599609375,32.71484375,-160.7666015625,11.23046875
29422,-1.1859130859375,0.2694091796875,0.7369384765625,74.951171875,-44.5556640625,46.93603515625
29649,-1.7366943359375,0.10205078125,-0.3211669921875,-39.4287109375,320.4345703125,-104.6142578125
29761,-0.84912109375,-0.58154296875,-2.0269775390625,-108.58154296875,224.12109375,-44.98291015625
29874,-1.659423828125,-0.2823486328125,-1.026123046875,-38.4521484375,-133.30078125,48.88916015625
29989,-1.1119384765625,-0.0714111328125,0.010498046875,15.56396484375,-44.37255859375,19.1650390625
30213,-1.0740966796875,-0.0040283203125,-0.015869140625,31.6162109375,-84.41162109375,15.93017578125
30324,-1.5809326171875,0.1497802734375,-0.05419921875,25.0244140625,-164.306640625,17.51708984375
30495,-1.688720703125,0.0830078125,0.75732421875,65.4296875,-48.76708984375,49.37744140625
30714,-1.3648681640625,-0.1881103515625,-0.379150390625,-93.93310546875,297.05810546875,-106.689453125
30833,-1.6588134765625,-0.756103515625,-1.493896484375,11.1083984375,264.7705078125,-56.2744140625
30940,-2.0548095703125,-1.11181640625,-0.239990234375,94.78759765625,-115.234375,73.91357421875
31055,-1.072021484375,-0.21630859375,0.05126953125,11.53564453125,-67.44384765625,32.8369140625
31167,-1.02734375,-0.0958251953125,0.013671875,11.41357421875,-43.9453125,16.9677734375
31282,-1.1622314453125,0.0408935546875,-0.037353515625,24.90234375,-69.4580078125,12.939453125
31398,-1.286376953125,0.105224609375,-0.149169921875,28.80859375,-133.4228515625,21.54541015625
31506,-1.5177001953125,-0.8072509765625,1.0548095703125,192.2607421875,-158.63037109375,62.19482421875
31622,-0.7276611328125,-1.0830078125,-0.7994384765625,107.84912109375,-23.37646484375,73.3642578125
31726,-0.662353515625,-0.0087890625,0.023193359375,-13.0615234375,255.31005859375,-28.076171875
31839,-2.2430419921875,-0.844482421875,-1.345458984375,-36.56005859375,288.63525390625,-93.75
31958,-2.3316650390625,1.8358154296875,2.1820068359375,-75.3173828125,-117.49267578125,58.28857421875
32127,-1.157470703125,-0.0894775390625,0.0712890625,4.69970703125,-58.65478515625,38.2080078125
32237,-0.978515625,-0.1087646484375,0.0809326171875,38.26904296875,-37.41455078125,16.6015625
32349,-1.190673828125,0.15087890625,0.0223388671875,-4.638671875,-68.66455078125,16.11328125
32462,-1.2408447265625,-0.1866455078125,-0.010986328125,31.06689453125,-125.30517578125,28.9306640625
32574,-1.93505859375,0.9947509765625,0.9578857421875,68.78662109375,-173.828125,33.203125
32740,-0.9091796875,-0.0975341796875,-0.1378173828125,-64.88037109375,277.16064453125,-84.8388671875
32910,-2.345703125,-0.3717041015625,-1.027099609375,-10.25390625,303.89404296875,-113.83056640625
33025,-0.428466796875,-0.63525390625,-2.281494140625,-102.47802734375,-20.8740234375,43.51806640625
33132,-1.40576171875,-0.8375244140625,-0.575439453125,55.419921875,-119.140625,85.5712890625
33249,-1.08251953125,-0.133544921875,0.04248046875,28.9306640625,-64.0869140625,39.4287109375
33361,-1.0057373046875,-0.0927734375,0.00927734375,19.4091796875,-44.0673828125,20.20263671875
33474,-1.06640625,0.0216064453125,0.0076904296875,27.34375,-71.77734375,17.39501953125
33585,-1.3916015625,0.3155517578125,-0.0115966796875,29.72412109375,-149.90234375,19.71435546875
33699,-1.936279296875,-0.1234130859375,0.3170166015625,89.29443359375,-108.58154296875,66.22314453125
33814,-0.5777587890625,0.2802734375,0.0018310546875,-105.52978515625,177.55126953125,-32.71484375
33979,-2.7764892578125,-0.41796875,-0.8526611328125,-15.625,333.55712890625,-121.03271484375
34091,-0.9888916015625,-0.5792236328125,-2.12255859375,-160.70556640625,-101.86767578125,45.47119140625
34207,-1.2972412109375,-0.011474609375,-0.5765380859375,59.87548828125,-121.58203125,80.2001953125
34320,-1.137451171875,0.0001220703125,0.083740234375,0.06103515625,-50.35400390625,28.62548828125
34547,-1.1021728515625,0.0506591796875,-0.0677490234375,11.90185546875,-76.7822265625,16.17431640625
34659,-1.6900634765625,0.8873291015625,0.3916015625,3.11279296875,-161.80419921875,12.02392578125
34823,-1.25830078125,-0.0487060546875,0.6041259765625,82.70263671875,10.25390625,43.5791015625
35048,-2.0684814453125,0.0072021484375,-0.42822265625,-28.564453125,319.091796875,-120.91064453125
35159,-0.576904296875,-1.0511474609375,-2.4378662109375,-22.0947265625,55.96923828125,26.2451171875
35274,-1.847900390625,-0.51513671875,-0.02734375,74.64599609375,-98.81591796875,78.61328125
35386,-1.055419921875,-0.1627197265625,0.0631103515625,25.45166015625,-62.56103515625,37.17041015625
35500,-0.9169921875,-0.2530517578125,0.102783203125,4.150390625,-70.068359375,20.08056640625
35613,-1.0360107421875,0.05224609375,-0.0853271484375,40.6494140625,-96.86279296875,24.4140625
35834,-2.4967041015625,0.1954345703125,-0.2724609375,-3.2958984375,-162.65869140625,71.533203125
36118,-2.114990234375,0.0872802734375,-0.5806884765625,-33.203125,326.23291015625,-111.083984375
36231,-0.5406494140625,-0.8455810546875,-3.087646484375,-133.85009765625,77.08740234375,21.30126953125
36342,-3.052490234375,-0.6505126953125,-0.177978515625,-20.44677734375,-93.32275390625,65.5517578125
36456,-0.9317626953125,-0.159423828125,0.3416748046875,31.06689453125,-58.89892578125,15.80810546875
36741,-1.149169921875,-0.020751953125,-0.2376708984375,40.283203125,-130.79833984375,19.53125
37240,-2.14013671875,-0.93798828125,-1.3221435546875,-28.4423828125,300.96435546875,-89.05029296875
37353,-2.3603515625,-0.08544921875,-0.5205078125,-10.6201171875,-121.39892578125,49.98779296875
37469,-1.0562744140625,-0.07666015625,0.0614013671875,28.62548828125,-56.70166015625,42.29736328125
37585,-1.033447265625,-0.017822265625,-0.0230712890625,2.685546875,-45.34912109375,15.2587890625
37693,-1.011474609375,-0.0220947265625,-0.05810546875,4.08935546875,-64.51416015625,18.49365234375
37805,-1.3480224609375,0.124755859375,-0.0826416015625,34.72900390625,-136.962890625,20.69091796875
37918,-1.5555419921875,-0.3409423828125,1.206787109375,162.78076171875,-159.0576171875,53.28369140625
38034,-0.33740234375,-2.0811767578125,-0.641845703125,-7.8125,22.5830078125,45.34912109375
38199,-1.54736328125,-0.01123046875,-0.293212890625,32.77587890625,291.015625,-107.48291015625
38310,-0.52978515625,-1.035400390625,-2.90380859375,-133.30078125,73.66943359375,20.44677734375
38426,-2.54150390625,0.7911376953125,0.2869873046875,-55.5419921875,-103.94287109375,45.7763671875
38541,-1.05859375,-0.1351318359375,0.2418212890625,11.77978515625,-61.95068359375,38.02490234375
38647,-0.9617919921875,-0.120361328125,0.1861572265625,17.2119140625,-86.85302734375,14.6484375
38815,-1.045654296875,0.0198974609375,-0.1380615234375,42.54150390625,-106.0791015625,26.30615234375
38935,-1.6861572265625,0.3509521484375,0.0863037109375,11.29150390625,-168.701171875,11.65771484375
39043,-2.2593994140625,0.1890869140625,-0.137451171875,-45.654296875,-153.9306640625,69.15283203125
39269,-2.0904541015625,-0.05078125,-0.4063720703125,-60.48583984375,345.703125,-113.76953125
39384,-0.7625732421875,-1.06884765625,-2.7410888671875,-94.90966796875,51.8798828125,12.20703125
39492,-2.1602783203125,0.0111083984375,-0.300537109375,48.52294921875,-115.17333984375,70.556640625
39607,-1.0870361328125,-0.1331787109375,0.0960693359375,46.08154296875,-66.5283203125,47.30224609375
39719,-1.0684814453125,-0.007568359375,0.0172119140625,7.32421875,-40.4052734375,15.80810546875
39835,-1.05615234375,-0.092041015625,0.066650390625,35.58349609375,-59.6923828125,21.6064453125
39947,-1.1617431640625,0.01953125,-0.2257080078125,47.18017578125,-112.1826171875,20.751953125
