time,accX,accY,accZ,ang_velX,ang_velY,ang_velZ
0,-1.01025390625,-0.1851806640625,-0.043701171875,-4.82177734375,-8.544921875,-1.28173828125
505,-1.015380859375,-0.1842041015625,-0.0640869140625,-3.662109375,-7.14111328125,-1.40380859375
618,-1.01318359375,-0.1783447265625,-0.0751953125,-3.173828125,-6.77490234375,-1.52587890625
731,-1.0113525390625,-0.1761474609375,-0.08642578125,-1.40380859375,-4.2724609375,-0.9765625
843,-1.0474853515625,-0.1678466796875,0.038818359375,-0.30517578125,3.41796875,-0.67138671875
1017,-1.0789794921875,-0.146240234375,-0.1588134765625,3.662109375,-1.03759765625,-1.3427734375
1184,-1.0372314453125,-0.07421875,-0.029541015625,3.35693359375,-51.45263671875,10.8642578125
1295,-1.919677734375,-0.3436279296875,0.35009765625,53.89404296875,-135.986328125,21.54541015625
1464,-0.63330078125,0.248779296875,0.5570068359375,26.79443359375,193.603515625,-16.845703125
1631,-1.3599853515625,-0.4407958984375,-0.602783203125,-91.30859375,176.45263671875,-75.74462890625
1859,-1.073486328125,0.00537109375,-0.188232421875,46.875,-65.4296875,32.2265625
1973,-0.9888916015625,-0.3037109375,-0.0447998046875,54.50439453125,-36.4990234375,20.32470703125
2142,-1.0048828125,-0.1832275390625,-0.1422119140625,42.90771484375,-60.36376953125,19.83642578125
2700,-1.00048828125,-0.2744140625,-1.3646240234375,-23.49853515625,-141.4794921875,77.2705078125
2814,-1.4583740234375,-0.38720703125,-0.232177734375,69.82421875,-102.05078125,41.68701171875
2926,-1.006591796875,-0.38623046875,0.005615234375,71.22802734375,-41.44287109375,18.6767578125
3149,-1.281005859375,-0.0450439453125,-0.13427734375,27.28271484375,-110.9619140625,23.37646484375
3265,-2.9920654296875,0.1593017578125,1.47216796875,275.0244140625,-179.26025390625,67.0166015625
3545,-2.58740234375,-0.6065673828125,-1.7379150390625,-51.8798828125,390.380859375,-58.9599609375
3711,-2.255615234375,3.303955078125,-0.42724609375,-358.7646484375,-294.61669921875,110.2294921875
3825,-1.226806640625,-0.1878662109375,-0.0224609375,19.53125,-44.73876953125,29.23583984375
3996,-1.02587890625,-0.250244140625,-0.1083984375,25.20751953125,-59.14306640625,22.0947265625
4166,-2.267578125,0.4903564453125,0.3380126953125,43.212890625,-213.07373046875,65.0634765625
4389,-0.6134033203125,-0.1427001953125,0.032958984375,49.560546875,223.81591796875,-72.509765625
4501,-2.3668212890625,-1.631591796875,-2.269287109375,-61.09619140625,311.767578125,-11.90185546875
4618,-1.1488037109375,-3.99951171875,-3.129150390625,311.21826171875,-143.85986328125,63.78173828125
4780,-1.0030517578125,-0.3267822265625,-0.1063232421875,36.1328125,-38.63525390625,23.49853515625
4897,-1.045166015625,-0.236572265625,-0.104248046875,37.53662109375,-30.09033203125,18.06640625
5009,-1.1610107421875,-0.276611328125,0.0311279296875,63.1103515625,-112.12158203125,31.1279296875
5177,-2.9176025390625,0.10009765625,0.7333984375,-183.28857421875,-259.94873046875,39.85595703125
5397,-2.5079345703125,-1.1348876953125,-1.5833740234375,7.38525390625,418.02978515625,-78.18603515625
5678,-1.1358642578125,-0.20361328125,-0.22607421875,11.04736328125,-40.6494140625,31.73828125
5787,-0.9642333984375,-0.2542724609375,-0.06201171875,24.10888671875,-35.94970703125,19.775390625
5898,-1.0609130859375,-0.2174072265625,-0.18115234375,42.05322265625,-69.27490234375,27.7099609375
6007,-1.8720703125,0.0455322265625,0.2012939453125,18.06640625,-205.38330078125,56.884765625
6134,-1.954833984375,0.6424560546875,0.4886474609375,-60.1806640625,-145.6298828125,-10.92529296875
6292,-1.92041015625,-0.1534423828125,-0.523681640625,-2.0751953125,411.865234375,-91.36962890625
6464,-1.523193359375,1.256103515625,0.60986328125,37.04833984375,-165.34423828125,87.21923828125
6588,-1.1578369140625,-0.6268310546875,0.073486328125,88.0126953125,-86.42578125,57.6171875
6698,-1.04248046875,-0.240478515625,-0.0400390625,33.14208984375,-19.83642578125,17.9443359375
6865,-1.137939453125,-0.138427734375,-0.177490234375,37.353515625,-89.35546875,22.94921875
7084,-2.07373046875,0.9083251953125,0.745849609375,-113.037109375,-160.7666015625,-15.13671875
7257,-1.9691162109375,-0.140380859375,-0.54833984375,15.80810546875,418.51806640625,-88.7451171875
7429,-3.731689453125,3.99951171875,3.3775634765625,121.64306640625,-121.826171875,65.73486328125
7538,-1.345947265625,-0.5283203125,-0.184326171875,53.5888671875,-75.25634765625,43.27392578125
7873,-1.2841796875,-0.14501953125,-0.07421875,29.96826171875,-125.1220703125,29.4189453125
8092,-0.462646484375,0.2120361328125,0.5792236328125,-56.94580078125,53.16162109375,-37.4755859375
8215,-1.91162109375,-0.054443359375,-0.348388671875,4.8828125,393.49365234375,-99.06005859375
8328,-0.7132568359375,-0.9412841796875,-2.739501953125,-312.01171875,73.2421875,-11.65771484375
8500,-1.3475341796875,-0.923828125,-0.0987548828125,35.400390625,-67.626953125,42.8466796875
8768,-1.1099853515625,-0.2005615234375,-0.1673583984375,15.5029296875,-82.21435546875,25.93994140625
8948,-2.917724609375,-0.070556640625,1.6944580078125,269.287109375,-158.87451171875,57.373046875
9058,-0.5484619140625,-0.2420654296875,0.17919921875,19.287109375,175.29296875,-89.17236328125
9168,-1.9342041015625,-0.471435546875,-0.287841796875,-21.17919921875,396.78955078125,-113.58642578125
9343,-2.3699951171875,2.890625,2.7578125,26.67236328125,-153.62548828125,78.9794921875
9796,-1.2889404296875,-0.188720703125,-0.0833740234375,58.41064453125,-106.0791015625,30.45654296875
9902,-3.25634765625,0.61962890625,1.439697265625,211.669921875,-173.2177734375,59.99755859375
10014,-0.6124267578125,0.0377197265625,0.2615966796875,-7.4462890625,171.20361328125,-69.27490234375
10188,-2.3758544921875,-0.9912109375,-1.827880859375,-16.9677734375,395.1416015625,-56.82373046875
10409,-1.2381591796875,0.0343017578125,-0.103759765625,101.9287109375,-92.59033203125,59.2041015625
10804,-1.45458984375,-0.105224609375,-0.1168212890625,15.68603515625,-169.98291015625,33.203125
11085,-1.36669921875,-0.1646728515625,-0.1044921875,-43.8232421875,362.48779296875,-77.20947265625
11197,-1.3609619140625,-1.08642578125,-2.5843505859375,-99.42626953125,225.7080078125,-23.13232421875
11420,-1.0745849609375,-0.260009765625,0.000732421875,-10.92529296875,-54.931640625,36.4990234375
11540,-0.9610595703125,-0.26171875,-0.000244140625,46.56982421875,-38.39111328125,16.41845703125
11703,-1.121337890625,-0.2939453125,-0.138916015625,44.73876953125,-89.66064453125,26.611328125
11873,-1.25830078125,-0.411376953125,0.44580078125,-34.66796875,-85.38818359375,-31.25
12098,-2.5018310546875,-0.302490234375,-0.833984375,18.5546875,417.66357421875,-92.46826171875
12319,-1.3133544921875,-0.892333984375,-1.2864990234375,59.5703125,-129.39453125,78.857421875
12437,-1.054443359375,-0.22900390625,-0.0047607421875,12.02392578125,-35.33935546875,25.0244140625
12662,-1.1058349609375,-0.2662353515625,-0.1451416015625,33.69140625,-77.1484375,22.8271484375
12772,-2.0794677734375,-0.9354248046875,0.8546142578125,272.27783203125,-167.724609375,62.68310546875
12886,-0.4964599609375,-0.09326171875,0.7724609375,-62.07275390625,12.5732421875,-53.89404296875
13103,-2.327880859375,-1.4600830078125,-1.7059326171875,36.2548828125,395.751953125,-87.2802734375
13223,-1.3768310546875,0.5611572265625,-0.0906982421875,-23.8037109375,-139.16015625,73.42529296875
13335,-1.126953125,-0.66259765625,-0.1435546875,159.36279296875,-76.23291015625,50.6591796875
13504,-0.953857421875,-0.2156982421875,-0.041015625,-0.244140625,-43.64013671875,16.66259765625
13612,-1.2423095703125,-0.2763671875,-0.01904296875,55.419921875,-104.30908203125,26.3671875
13729,-2.3076171875,-0.0526123046875,0.808837890625,-153.25927734375,-210.5712890625,4.69970703125
14016,-1.771240234375,-0.035888671875,-0.2001953125,-27.16064453125,386.3525390625,-83.06884765625
14125,-0.8392333984375,-1.4383544921875,-2.9873046875,-219.78759765625,173.52294921875,-24.71923828125
14230,-1.4405517578125,0.5457763671875,-0.3809814453125,-377.685546875,-257.9345703125,146.728515625
14347,-1.0543212890625,-0.35791015625,-0.03125,-9.46044921875,-50.23193359375,32.2265625
14512,-1.0213623046875,-0.2490234375,-0.1138916015625,35.7666015625,-64.5751953125,25.69580078125
14798,-1.5260009765625,-0.102783203125,0.442626953125,-46.20361328125,-101.5625,-8.4228515625
14964,-1.23388671875,0.100341796875,-0.0826416015625,0.67138671875,347.0458984375,-69.76318359375
15085,-2.0595703125,-1.3297119140625,-2.4178466796875,-59.63134765625,315.5517578125,-35.70556640625
15190,-3.4810791015625,3.99951171875,3.99951171875,238.76953125,-103.271484375,61.09619140625
15357,-1.1134033203125,-0.1732177734375,-0.1451416015625,12.75634765625,-50.96435546875,17.9443359375
15638,-1.7322998046875,-0.0032958984375,0.0906982421875,19.8974609375,-201.904296875,33.99658203125
16041,-2.7845458984375,-0.6358642578125,-1.943115234375,-5.18798828125,385.19287109375,-68.54248046875
16153,-3.2672119140625,-1.25732421875,0.0439453125,169.189453125,-176.6357421875,74.21875
16261,-1.20556640625,-0.213134765625,-0.1072998046875,-0.6103515625,-59.08203125,30.45654296875
16535,-1.31591796875,-0.095458984375,-0.087646484375,62.744140625,-129.82177734375,20.751953125
16713,-2.4576416015625,0.7684326171875,0.6829833984375,-187.80517578125,-200.5615234375,-25.5126953125
16996,-2.6883544921875,-0.75146484375,-1.6826171875,25.2685546875,402.40478515625,-64.453125
17162,-1.0164794921875,1.211669921875,-0.501708984375,-357.60498046875,-241.2109375,173.9501953125
17277,-0.9913330078125,-0.2613525390625,-0.0823974609375,41.32080078125,-50.35400390625,17.88330078125
17386,-1.0140380859375,-0.2711181640625,-0.138427734375,48.33984375,-34.423828125,10.80322265625
17724,-0.831298828125,-0.7606201171875,0.1043701171875,-118.34716796875,-59.326171875,-31.18896484375
17837,-0.833251953125,-0.0986328125,0.0584716796875,36.19384765625,277.83203125,-88.9892578125
18062,-0.8721923828125,-0.57421875,-2.2327880859375,-89.7216796875,-115.6005859375,64.51416015625
18179,-1.08984375,-0.352294921875,-0.0660400390625,-5.55419921875,-59.4482421875,35.64453125
18347,-1.0162353515625,-0.19189453125,-0.1407470703125,37.59765625,-59.814453125,15.2587890625
18556,-1.619873046875,-0.0235595703125,0.0462646484375,17.39501953125,-194.3359375,41.3818359375
18681,-1.9354248046875,0.498779296875,0.5350341796875,-90.27099609375,-152.4658203125,-8.60595703125
18908,-1.9283447265625,-0.19189453125,-0.492919921875,-34.24072265625,397.4609375,-100.76904296875
19018,-0.691650390625,-1.1207275390625,-2.8372802734375,-207.58056640625,109.31396484375,0.48828125
19127,-1.3890380859375,-0.78759765625,-0.02099609375,82.82470703125,-65.36865234375,47.8515625
19461,-1.2158203125,-0.1627197265625,-0.0572509765625,56.82373046875,-109.9853515625,21.05712890625
19571,-2.6217041015625,-0.0673828125,1.1583251953125,267.9443359375,-175.47607421875,53.16162109375
19806,-0.7540283203125,0.1148681640625,0.00927734375,17.333984375,289.12353515625,-75.37841796875
19916,-2.7386474609375,-0.687744140625,-1.6614990234375,45.0439453125,437.8662109375,-61.58447265625
20135,-1.1134033203125,-0.46533203125,-0.058349609375,-18.85986328125,-65.00244140625,33.87451171875
20259,-1.010986328125,-0.2825927734375,-0.0894775390625,3.173828125,-33.87451171875,11.29150390625
20369,-1.0281982421875,-0.1630859375,-0.0322265625,28.076171875,-56.70166015625,19.22607421875
20479,-1.2432861328125,-0.2545166015625,-0.0960693359375,30.2734375,-150.45166015625,32.1044921875
20588,-1.3682861328125,-2.0335693359375,-0.3341064453125,67.32177734375,-260.43701171875,12.75634765625
20698,-0.5025634765625,0.013916015625,0.3768310546875,-79.9560546875,75.5615234375,-62.1337890625
20809,-1.096923828125,-0.2723388671875,-0.085693359375,-31.3720703125,330.38330078125,-90.33203125
20981,-3.5086669921875,1.4345703125,1.1258544921875,399.0478515625,-88.31787109375,36.80419921875
21214,-0.9375,-0.19091796875,0.047119140625,54.8095703125,-41.6259765625,18.310546875
21371,-1.0960693359375,-0.2838134765625,-0.167724609375,56.884765625,-69.3359375,18.98193359375
21492,-1.6761474609375,-0.084228515625,0.108154296875,23.5595703125,-181.70166015625,34.0576171875
21649,-0.762451171875,-0.3272705078125,0.4224853515625,-132.26318359375,-23.8037109375,-14.22119140625
21822,-2.54345703125,-0.5570068359375,-1.659912109375,30.70068359375,413.6962890625,-67.19970703125
21994,-0.3607177734375,-0.5286865234375,-0.1885986328125,-196.044921875,-186.21826171875,132.9345703125
22104,-1.103515625,-0.2423095703125,-0.078125,-23.5595703125,-75.5615234375,35.58349609375
22275,-0.977294921875,-0.2764892578125,-0.1312255859375,42.724609375,-40.34423828125,16.90673828125
22447,-1.2471923828125,-0.16015625,-0.146240234375,36.56005859375,-153.3203125,35.400390625
22556,-1.005615234375,-1.413818359375,-0.326416015625,230.8349609375,-193.05419921875,-0.06103515625
22666,-0.5318603515625,-0.016357421875,0.3231201171875,14.46533203125,116.63818359375,-59.38720703125
22792,-2.2093505859375,-0.32861328125,-0.5838623046875,-25.87890625,406.25,-98.81591796875
22896,-0.669677734375,-0.9033203125,-2.566650390625,-64.88037109375,-65.7958984375,50.84228515625
23069,-0.9710693359375,-0.681396484375,-0.1295166015625,1.89208984375,-67.2607421875,38.9404296875
23226,-0.933349609375,-0.2510986328125,-0.041259765625,45.71533203125,-28.01513671875,12.14599609375
23513,-1.3614501953125,-1.93310546875,-0.7835693359375,240.478515625,-224.79248046875,28.01513671875
23623,-0.980224609375,-0.0433349609375,-0.0340576171875,-22.4609375,324.21875,-76.47705078125
23791,-2.5809326171875,-1.158203125,-2.191162109375,-24.658203125,356.14013671875,-71.2890625
23916,-3.8077392578125,3.99951171875,3.99951171875,118.7744140625,-125.18310546875,86.7919921875
24025,-0.865966796875,-0.968017578125,0.1121826171875,8.11767578125,-83.55712890625,46.0205078125
24135,-1.073486328125,-0.2979736328125,-0.1783447265625,33.0810546875,-33.02001953125,17.4560546875
24365,-1.2694091796875,-0.1859130859375,-0.0545654296875,62.98828125,-121.58203125,22.76611328125
24525,-2.4271240234375,0.5670166015625,0.8199462890625,-114.990234375,-138.0615234375,-6.34765625
24634,-1.0506591796875,0.0577392578125,0.0738525390625,5.92041015625,319.4580078125,-91.9189453125
24760,-2.5845947265625,-1.0576171875,-2.0252685546875,-12.63427734375,387.5732421875,-67.138671875
24870,-1.160888671875,-0.2852783203125,-1.2548828125,-19.6533203125,-182.861328125,91.12548828125
25042,-1.258544921875,-0.202392578125,-0.287841796875,-25.45166015625,-65.24658203125,26.0009765625
25151,-1.000244140625,-0.3082275390625,-0.04345703125,31.92138671875,-19.83642578125,13.36669921875
25261,-1.0736083984375,-0.2213134765625,-0.16015625,27.89306640625,-63.232421875,18.49365234375
25385,-1.4573974609375,0.0008544921875,-0.0914306640625,20.69091796875,-168.39599609375,31.25
25487,-0.8173828125,-0.8248291015625,0.27978515625,-18.61572265625,-41.68701171875,-30.70068359375
25706,-2.7132568359375,-0.4755859375,-1.5194091796875,41.32080078125,432.18994140625,-64.8193359375
25816,-0.9097900390625,-0.7908935546875,-2.114990234375,-90.75927734375,-138.61083984375,77.880859375
25941,-1.593505859375,0.2161865234375,-0.1246337890625,181.21337890625,-96.6796875,94.482421875
26051,-1.014892578125,-0.3175048828125,-0.0235595703125,60.60791015625,-21.30126953125,21.17919921875
26160,-1.051025390625,-0.208740234375,-0.2137451171875,40.71044921875,-66.83349609375,24.35302734375
26379,-2.2615966796875,-1.042236328125,0.1441650390625,-70.98388671875,-307.12890625,23.4375
26559,-0.8052978515625,0.095703125,0.0283203125,30.45654296875,248.4130859375,-77.1484375
26717,-1.5863037109375,-1.269775390625,-2.5697021484375,-104.06494140625,282.40966796875,-23.92578125
26827,-1.9122314453125,-3.99951171875,-2.7283935546875,-65.12451171875,-136.29150390625,118.65234375
26951,-1.0816650390625,-0.2574462890625,-0.0576171875,-32.470703125,-74.27978515625,34.85107421875
27061,-1.05322265625,-0.2374267578125,-0.125,9.94873046875,-29.47998046875,12.02392578125
27232,-1.129638671875,-0.267333984375,-0.1220703125,28.9306640625,-80.4443359375,24.5361328125
27389,-2.272705078125,-0.2620849609375,0.42236328125,-237.60986328125,-222.96142578125,3.173828125
27501,-0.7921142578125,0.0546875,0.077880859375,51.33056640625,292.8466796875,-69.64111328125
27674,-2.7969970703125,-0.5777587890625,-1.5211181640625,-11.3525390625,431.0302734375,-68.05419921875
27785,-1.0499267578125,-0.90625,-1.766845703125,-22.64404296875,-184.4482421875,103.08837890625
27909,-1.77392578125,-0.438720703125,-0.0745849609375,226.4404296875,-120.66650390625,107.0556640625
28019,-1.0631103515625,-0.3857421875,-0.069091796875,47.18017578125,-33.203125,23.193359375
28135,-0.9720458984375,-0.3177490234375,-0.0853271484375,27.9541015625,-45.47119140625,17.51708984375
28238,-1.23876953125,-0.02783203125,-0.0865478515625,11.77978515625,-166.44287109375,32.89794921875
28349,-2.40478515625,-0.6146240234375,-0.110595703125,-171.142578125,-308.4716796875,38.2080078125
28575,-1.6278076171875,0.1248779296875,-0.1253662109375,-30.2734375,383.23974609375,-91.36962890625
28685,-1.1009521484375,-1.2337646484375,-2.7393798828125,-180.6640625,221.0693359375,-24.71923828125
28858,-2.4130859375,-0.2529296875,-0.5067138671875,56.396484375,-142.39501953125,82.09228515625
29092,-0.864501953125,-0.3140869140625,-0.0853271484375,34.66796875,-24.10888671875,13.3056640625
29202,-1.19677734375,-0.09521484375,-0.112060546875,51.33056640625,-146.3623046875,34.36279296875
29372,-1.5257568359375,-0.378173828125,0.45654296875,-2.9296875,-103.02734375,-13.97705078125
29594,-2.4434814453125,-0.323486328125,-0.7720947265625,-1.40380859375,424.8046875,-81.60400390625
29704,-0.5015869140625,-0.84912109375,-2.56298828125,-66.22314453125,-81.84814453125,66.71142578125
29815,-0.708740234375,-0.6856689453125,-1.5335693359375,9.1552734375,-126.28173828125,61.34033203125
29982,-1.062255859375,-0.312744140625,-0.0948486328125,22.15576171875,-36.2548828125,17.15087890625
30092,-1.039794921875,-0.26123046875,-0.096923828125,40.52734375,-69.4580078125,15.869140625
30216,-1.50537109375,-0.04248046875,-0.1080322265625,21.728515625,-173.095703125,33.99658203125
30326,-2.513671875,-0.7244873046875,0.3687744140625,-148.4375,-266.6015625,20.20263671875
30434,-0.5570068359375,-0.0975341796875,0.177001953125,-13.61083984375,162.59765625,-63.17138671875
30544,-1.63720703125,-0.073974609375,-0.173828125,-58.7158203125,361.99951171875,-85.38818359375
30653,-0.8197021484375,-1.4656982421875,-2.865234375,-186.34033203125,155.2734375,-23.193359375
30826,-1.26708984375,-0.09521484375,-0.3082275390625,65.61279296875,-90.6982421875,47.7294921875
31108,-1.216796875,-0.13134765625,-0.0721435546875,53.89404296875,-102.72216796875,22.39990234375
31498,-1.640625,0.0667724609375,-0.196533203125,-34.85107421875,380.18798828125,-89.2333984375
31617,-0.8380126953125,-1.153564453125,-3.29833984375,-253.84521484375,148.49853515625,-17.578125
31727,-0.3475341796875,1.171142578125,-0.0823974609375,-286.80419921875,-226.37939453125,178.03955078125
31899,-0.985107421875,-0.2139892578125,-0.0885009765625,7.01904296875,-35.21728515625,14.09912109375
32180,-2.807861328125,0.153076171875,1.9959716796875,260.7421875,-166.6259765625,52.490234375
32290,-0.6964111328125,-0.1533203125,0.6839599609375,-121.58203125,3.173828125,-24.7802734375
32524,-2.6851806640625,-0.5423583984375,-1.72216796875,4.638671875,394.287109375,-59.50927734375
32628,-1.55078125,0.5203857421875,0.535400390625,-7.99560546875,-162.17041015625,86.181640625
32737,-1.1510009765625,-0.290771484375,-0.2525634765625,122.86376953125,-72.20458984375,52.18505859375
32912,-1.0081787109375,-0.2900390625,-0.074951171875,48.9501953125,-32.40966796875,18.06640625
33084,-1.5616455078125,-0.1046142578125,0.0078125,18.37158203125,-187.56103515625,44.5556640625
33247,-0.473876953125,-0.351318359375,0.5130615234375,-69.580078125,12.939453125,-31.18896484375
33421,-1.8253173828125,-0.0953369140625,-0.2420654296875,-31.494140625,386.77978515625,-90.02685546875
33530,-0.67822265625,-1.010498046875,-2.984375,-301.7578125,109.7412109375,-8.11767578125
33703,-1.208251953125,-0.154052734375,-0.2008056640625,-7.9345703125,-59.326171875,31.005859375
33859,-0.96923828125,-0.2562255859375,-0.099365234375,48.33984375,-47.2412109375,15.7470703125
33986,-1.232666015625,-0.2054443359375,-0.0447998046875,48.7060546875,-104.91943359375,25.0244140625
34157,-2.3365478515625,0.1490478515625,0.76904296875,-134.46044921875,-180.7861328125,-4.21142578125
34369,-1.5318603515625,-0.3876953125,-0.232177734375,-54.0771484375,384.765625,-105.16357421875
34480,-0.7889404296875,-1.16748046875,-2.8704833984375,-102.72216796875,157.3486328125,-13.671875
34602,-0.837890625,-0.3330078125,-0.2603759765625,125.244140625,-81.60400390625,51.33056640625
34758,-1.050537109375,-0.2615966796875,-0.1595458984375,41.015625,-47.30224609375,17.02880859375
34930,-1.271728515625,-0.2005615234375,-0.0665283203125,66.89453125,-103.33251953125,25.7568359375
35104,-2.39111328125,0.0260009765625,0.785888671875,-204.7119140625,-211.42578125,6.9580078125
35275,-0.919189453125,0.0504150390625,-0.00634765625,20.81298828125,297.8515625,-78.18603515625
35385,-0.57470703125,-1.0526123046875,-3.287353515625,-255.92041015625,142.63916015625,-20.32470703125
35556,-0.8206787109375,-0.5166015625,-0.089599609375,106.4453125,-79.16259765625,52.490234375
35664,-0.994384765625,-0.369384765625,-0.029296875,42.66357421875,-41.9921875,20.99609375
35898,-1.2615966796875,-0.1728515625,-0.0218505859375,52.06298828125,-101.1962890625,21.97265625
36010,-2.7596435546875,0.3172607421875,1.44970703125,302.8564453125,-162.41455078125,55.908203125
36291,-1.590576171875,-0.034423828125,-0.221923828125,-33.63037109375,380.67626953125,-95.8251953125
36400,-1.0406494140625,-1.17529296875,-2.69873046875,-134.09423828125,169.3115234375,-15.5029296875
36509,-1.55029296875,0.2135009765625,-0.4881591796875,-37.2314453125,-150.20751953125,52.8564453125
36623,-0.9774169921875,-0.3109130859375,0.0333251953125,28.99169921875,-50.72021484375,23.4375
36732,-1.0311279296875,-0.2490234375,-0.16259765625,26.55029296875,-48.095703125,18.4326171875
36841,-1.1871337890625,-0.2706298828125,-0.095703125,53.955078125,-84.28955078125,23.92578125
37249,-1.501220703125,-0.2625732421875,-0.17626953125,-63.04931640625,362.36572265625,-92.4072265625
37352,-0.6234130859375,-0.8792724609375,-2.4718017578125,-32.470703125,-70.73974609375,65.85693359375
37525,-1.0552978515625,-0.4505615234375,-0.1326904296875,86.5478515625,-58.65478515625,41.3818359375
37860,-1.259033203125,-0.07958984375,-0.1282958984375,32.958984375,-146.66748046875,30.029296875
38029,-0.7628173828125,0.0009765625,0.025634765625,33.3251953125,261.04736328125,-80.38330078125
38256,-1.7965087890625,-1.4793701171875,-2.392578125,-80.56640625,293.88427734375,-46.81396484375
38429,-1.9815673828125,-0.9429931640625,-1.6142578125,45.166015625,-135.31494140625,84.28955078125
38538,-0.9586181640625,-0.2613525390625,-0.009765625,38.9404296875,-39.0625,28.86962890625
38651,-0.9608154296875,-0.306396484375,-0.0399169921875,37.65869140625,-31.18896484375,14.58740234375
38760,-1.099609375,-0.1693115234375,-0.1402587890625,50.537109375,-69.76318359375,23.62060546875
38869,-1.6343994140625,0.0325927734375,0.0133056640625,63.17138671875,-200.50048828125,66.0400390625
38979,-2.0084228515625,0.6573486328125,0.851318359375,-66.2841796875,-152.9541015625,-15.2587890625
39153,-0.925537109375,-0.1744384765625,-0.0291748046875,14.95361328125,316.58935546875,-81.11572265625
39278,-0.607421875,-0.8546142578125,-3.182861328125,-284.5458984375,37.90283203125,18.798828125
39387,-0.8111572265625,-0.313232421875,-1.245849609375,-23.62060546875,-157.77587890625,89.84375
39497,-1.10009765625,-0.1875,-0.0826416015625,-3.7841796875,-56.7626953125,33.0810546875
39606,-0.9859619140625,-0.2611083984375,-0.118896484375,22.8271484375,-39.97802734375,20.8740234375
39715,-1.0797119140625,-0.270751953125,-0.1292724609375,50.29296875,-73.3642578125,24.0478515625
39836,-2.279541015625,0.225830078125,0.502197265625,71.10595703125,-201.5380859375,62.8662109375
39945,-1.6258544921875,-0.1468505859375,0.5823974609375,-3.173828125,-114.31884765625,8.11767578125
