time,accX,accY,accZ,ang_velX,ang_velY,ang_velZ
0,-1.01171875,-0.161376953125,-0.1148681640625,1.64794921875,3.72314453125,1.03759765625
125,-1.019287109375,-0.1719970703125,-0.0692138671875,0.0,6.9580078125,2.197265625
402,-0.99951171875,-0.167724609375,-0.0760498046875,-0.06103515625,-3.84521484375,0.3662109375
511,-1.0006103515625,-0.1822509765625,-0.0826416015625,-4.2724609375,-0.3662109375,3.47900390625
667,-0.9989013671875,-0.19873046875,-0.063232421875,-4.45556640625,-3.173828125,1.77001953125
839,-1.0108642578125,-0.1490478515625,-0.101806640625,-8.7890625,-9.27734375,-1.5869140625
949,-1.025390625,-0.15087890625,-0.12109375,-8.30078125,-4.82177734375,-0.3662109375
1073,-0.9600830078125,-0.244384765625,-0.0565185546875,0.54931640625,-5.0048828125,-2.99072265625
1183,-1.0142822265625,-0.153076171875,-0.13525390625,-1.220703125,-17.39501953125,-10.7421875
1292,-0.9796142578125,-0.153076171875,-0.1431884765625,6.65283203125,-21.05712890625,-18.310546875
1402,-1.037841796875,-0.0755615234375,-0.1851806640625,34.0576171875,-34.5458984375,-39.1845703125
1511,-1.5101318359375,0.24755859375,-0.10693359375,45.71533203125,-62.744140625,-57.92236328125
1636,-1.0213623046875,-0.5255126953125,-0.515625,-93.56689453125,-115.05126953125,-45.95947265625
1741,-0.4857177734375,-0.3106689453125,0.041015625,-31.55517578125,0.1220703125,17.9443359375
1852,-0.8076171875,-0.0203857421875,0.052001953125,29.47998046875,135.07080078125,36.68212890625
1976,-1.799560546875,-0.226318359375,-0.228271484375,-33.8134765625,219.970703125,89.4775390625
2086,-0.6568603515625,0.2503662109375,-1.0596923828125,45.10498046875,-36.2548828125,15.07568359375
2195,-1.3878173828125,-1.225341796875,-1.1890869140625,-192.7490234375,-157.2265625,-30.6396484375
2305,-1.263671875,0.039794921875,-0.113037109375,98.6328125,-45.8984375,4.82177734375
2414,-1.049072265625,-0.1475830078125,-0.2181396484375,-17.2119140625,-27.77099609375,10.3759765625
2526,-1.000244140625,-0.3048095703125,-0.1204833984375,-10.19287109375,-7.14111328125,3.72314453125
2699,-1.0771484375,-0.2965087890625,-0.287841796875,22.94921875,-114.1357421875,-21.97265625
2872,-2.016845703125,-0.1346435546875,-0.3223876953125,-143.98193359375,-186.58447265625,-22.705078125
3090,-1.2392578125,-0.146240234375,0.04345703125,34.1796875,334.89990234375,15.93017578125
3264,-0.5455322265625,0.3167724609375,-2.142333984375,75.13427734375,-58.28857421875,25.69580078125
3373,-1.2313232421875,1.031005859375,-1.24267578125,-241.69921875,-191.10107421875,-21.05712890625
3482,-1.0584716796875,-0.205078125,-0.180908203125,-29.052734375,-71.044921875,6.04248046875
3600,-0.9661865234375,-0.201904296875,-0.2236328125,9.765625,-4.94384765625,2.86865234375
3711,-0.865966796875,-0.13134765625,-0.1080322265625,13.36669921875,-29.23583984375,8.60595703125
3827,-1.4906005859375,-0.0006103515625,-0.2181396484375,14.34326171875,-132.75146484375,-26.06201171875
4157,-0.5772705078125,-0.1168212890625,0.0408935546875,6.4697265625,248.4130859375,11.23046875
4281,-2.7564697265625,-0.3309326171875,-0.705078125,-72.69287109375,349.2431640625,87.82958984375
4384,-0.54833984375,0.2283935546875,-2.0556640625,63.8427734375,-37.29248046875,29.9072265625
4495,-2.6856689453125,1.3092041015625,-0.3487548828125,-373.84033203125,-206.60400390625,-15.56396484375
4619,-1.2119140625,-0.5501708984375,-0.30517578125,32.1044921875,-65.3076171875,8.97216796875
4776,-0.78076171875,-0.1746826171875,-0.031005859375,29.60205078125,-26.55029296875,10.68115234375
4900,-1.03173828125,-0.1357421875,-0.1746826171875,41.80908203125,-99.12109375,-11.16943359375
5010,-1.2989501953125,-1.9000244140625,-0.1708984375,261.29150390625,-148.86474609375,10.986328125
5229,-0.32275390625,-0.0799560546875,0.0802001953125,-74.15771484375,143.6767578125,10.7421875
5401,-2.380126953125,-0.2371826171875,-0.32666015625,-15.93017578125,365.234375,76.84326171875
5510,-0.535888671875,0.4381103515625,-2.27392578125,18.5546875,-23.74267578125,15.19775390625
5619,-0.940673828125,0.8009033203125,-0.305908203125,47.66845703125,-75.74462890625,-17.63916015625
5799,-0.94970703125,-0.1556396484375,-0.11962890625,20.99609375,-6.77490234375,8.48388671875
5910,-0.9505615234375,-0.1229248046875,-0.072998046875,16.41845703125,-26.91650390625,5.7373046875
6020,-1.0804443359375,-0.2542724609375,-0.14013671875,16.17431640625,-85.205078125,-8.544921875
6128,-1.9881591796875,0.0264892578125,-0.0162353515625,61.1572265625,-151.0009765625,-30.09033203125
6238,-1.91162109375,-0.090087890625,-1.1688232421875,-190.36865234375,-229.30908203125,-23.37646484375
6363,-0.169189453125,-0.1910400390625,0.331787109375,-44.86083984375,97.71728515625,11.1083984375
6519,-2.81787109375,-0.6376953125,-1.0142822265625,-93.44482421875,316.40625,82.3974609375
6644,-0.90087890625,-0.1259765625,-1.69580078125,96.98486328125,-114.3798828125,1.03759765625
6754,-0.550048828125,0.8936767578125,-1.0108642578125,-107.2998046875,-197.265625,30.57861328125
6863,-1.0413818359375,-0.01904296875,-0.2919921875,-64.75830078125,-49.4384765625,3.2958984375
6972,-0.9041748046875,-0.3587646484375,-0.135986328125,36.92626953125,-0.06103515625,4.638671875
7092,-0.6912841796875,-0.2061767578125,0.0362548828125,44.921875,-29.11376953125,10.31494140625
7202,-1.036376953125,-0.113037109375,-0.181884765625,39.24560546875,-105.52978515625,-16.05224609375
7312,-3.0574951171875,0.3394775390625,0.7677001953125,55.96923828125,-178.77197265625,-34.85107421875
7484,-0.24267578125,-0.2139892578125,-0.0631103515625,-68.84765625,148.01025390625,23.62060546875
7593,-1.114013671875,-0.2391357421875,-0.1361083984375,17.76123046875,307.06787109375,37.9638671875
7703,-1.7440185546875,0.1474609375,-1.416259765625,-49.31640625,231.14013671875,68.115234375
7827,-2.9814453125,-0.7525634765625,0.42333984375,531.55517578125,-59.5703125,6.40869140625
7928,-0.6680908203125,0.47802734375,-0.1788330078125,92.1630859375,-81.11572265625,-1.03759765625
8209,-0.8690185546875,-0.174072265625,-0.0706787109375,21.1181640625,-31.06689453125,5.615234375
8319,-1.3427734375,-0.2080078125,-0.2747802734375,30.82275390625,-125.42724609375,-29.78515625
8449,-1.236083984375,-1.813720703125,0.226318359375,273.4375,-143.73779296875,-1.3427734375
8549,-0.118896484375,-0.368896484375,0.1448974609375,76.72119140625,12.451171875,16.29638671875
8660,-0.502685546875,-0.0350341796875,-0.0086669921875,-15.07568359375,236.63330078125,4.21142578125
8784,-2.4473876953125,-0.3544921875,-0.41015625,8.056640625,372.55859375,61.767578125
8886,-0.732421875,0.464599609375,-2.5052490234375,4.08935546875,1.708984375,34.5458984375
8997,-1.8294677734375,-0.93359375,-2.4278564453125,-487.12158203125,-272.88818359375,-21.240234375
9106,-1.2669677734375,-0.5504150390625,-0.2471923828125,96.61865234375,-83.1298828125,15.2587890625
9231,-0.9576416015625,-0.2969970703125,-0.2237548828125,15.19775390625,-3.662109375,-1.15966796875
9450,-1.2059326171875,0.0167236328125,-0.30712890625,44.0673828125,-105.52978515625,-12.26806640625
9621,-2.341796875,0.0364990234375,-0.714599609375,-231.87255859375,-215.51513671875,-29.96826171875
9731,-0.2476806640625,-0.30419921875,0.3372802734375,8.30078125,95.21484375,23.13232421875
9848,-0.8211669921875,-0.1956787109375,0.02197265625,7.87353515625,287.353515625,31.06689453125
9960,-2.425048828125,-0.3843994140625,-1.1673583984375,-82.8857421875,306.33544921875,70.3125
10078,-0.947265625,-0.1888427734375,-1.5125732421875,70.98388671875,-123.046875,4.7607421875
10187,-1.464599609375,-0.5654296875,-0.389404296875,151.123046875,-58.10546875,16.78466796875
10291,-1.0823974609375,-0.081298828125,-0.175048828125,-6.8359375,-13.73291015625,5.55419921875
10415,-0.94921875,-0.1671142578125,-0.136962890625,3.23486328125,-10.7421875,4.21142578125
10517,-0.9525146484375,-0.4293212890625,-0.0631103515625,4.8828125,-68.84765625,-5.7373046875
10691,-2.340576171875,0.04736328125,0.232666015625,57.31201171875,-160.7666015625,-30.029296875
10800,-1.697509765625,0.243408203125,-0.3592529296875,-80.6884765625,-105.95703125,-22.39990234375
10909,-0.2794189453125,-0.1705322265625,0.0758056640625,-54.87060546875,129.21142578125,12.26806640625
11034,-0.9482421875,-0.207763671875,-0.0118408203125,2.38037109375,309.26513671875,17.7001953125
11143,-0.5118408203125,0.5545654296875,-2.520263671875,-85.3271484375,28.564453125,22.27783203125
11248,-2.5374755859375,-0.28271484375,-1.1536865234375,-354.79736328125,-283.14208984375,27.7099609375
11359,-1.5203857421875,-0.529052734375,-0.2379150390625,105.65185546875,-60.302734375,19.04296875
11484,-0.9725341796875,-0.102294921875,-0.1746826171875,6.04248046875,-4.69970703125,7.14111328125
11593,-1.02001953125,-0.0816650390625,-0.130859375,4.94384765625,-13.18359375,5.4931640625
11703,-1.06396484375,-0.287353515625,-0.141357421875,11.1083984375,-86.3037109375,-10.68115234375
11812,-1.9652099609375,-0.179443359375,-0.01806640625,30.76171875,-152.7099609375,-31.06689453125
11921,-0.9310302734375,-0.3516845703125,-1.1925048828125,-161.4990234375,-192.626953125,-17.2119140625
12046,-0.4404296875,0.0177001953125,-0.0855712890625,-59.5703125,187.255859375,15.9912109375
12155,-1.5965576171875,-0.228515625,-0.0994873046875,15.5029296875,336.36474609375,46.5087890625
12265,-0.3525390625,-0.0078125,-2.5518798828125,-96.86279296875,120.66650390625,68.2373046875
12374,-0.484619140625,-2.23046875,-2.1417236328125,-332.21435546875,-197.265625,-39.1845703125
12542,-1.0775146484375,-0.0797119140625,-0.3583984375,-43.0908203125,-60.9130859375,5.7373046875
12653,-0.9388427734375,-0.3228759765625,-0.22021484375,16.11328125,1.28173828125,7.080078125
12826,-1.01171875,-0.3856201171875,-0.0911865234375,3.90625,-70.1904296875,-7.6904296875
12935,-3.1019287109375,0.187255859375,0.97314453125,93.07861328125,-187.3779296875,-22.94921875
13059,-1.08984375,0.069580078125,-0.489013671875,23.8037109375,-74.15771484375,-30.76171875
13169,-0.3695068359375,-0.109619140625,-0.1463623046875,-74.76806640625,171.69189453125,4.2724609375
13278,-1.3154296875,-0.23046875,-0.090576171875,4.0283203125,324.462890625,24.47509765625
13388,-0.66357421875,-0.609619140625,-2.2672119140625,-63.4765625,189.02587890625,72.1435546875
13497,-2.648681640625,-0.736083984375,0.59619140625,397.3388671875,-83.6181640625,-11.5966796875
13621,-1.343505859375,0.3870849609375,-0.3070068359375,150.08544921875,-70.556640625,1.40380859375
13731,-1.09423828125,-0.1763916015625,-0.302734375,-27.099609375,-34.912109375,2.01416015625
13848,-0.9600830078125,-0.1103515625,-0.155517578125,9.1552734375,-18.00537109375,4.2724609375
13957,-1.1138916015625,-0.1024169921875,-0.1845703125,10.8642578125,-93.68896484375,-12.5732421875
14069,-3.4273681640625,0.3953857421875,0.8128662109375,50.72021484375,-200.50048828125,-19.47021484375
14178,-1.2493896484375,0.44384765625,-0.038818359375,-29.96826171875,-80.87158203125,-6.34765625
14288,-0.3880615234375,-0.1490478515625,-0.0693359375,-95.88623046875,175.35400390625,8.7890625
14397,-1.4859619140625,-0.2230224609375,-0.0892333984375,22.216796875,328.67431640625,31.73828125
14521,-0.8055419921875,-0.1007080078125,-1.4786376953125,-64.14794921875,188.720703125,67.5048828125
14625,-2.41455078125,-2.1859130859375,-0.659912109375,305.419921875,-104.18701171875,-0.732421875
14736,-0.929443359375,0.1903076171875,-0.170654296875,-72.69287109375,-71.2890625,1.46484375
14846,-0.9521484375,-0.2154541015625,-0.2550048828125,12.14599609375,-2.9296875,7.99560546875
14970,-0.9029541015625,-0.07470703125,-0.1290283203125,28.6865234375,-26.0009765625,8.056640625
15080,-1.1064453125,-0.1357421875,-0.1734619140625,24.10888671875,-101.9287109375,-17.27294921875
15251,-1.8111572265625,-0.8336181640625,-1.1353759765625,-192.9931640625,-218.56689453125,-29.78515625
15355,-0.0189208984375,-0.324462890625,0.306884765625,11.8408203125,89.90478515625,67.2607421875
15466,-0.83544921875,-0.0001220703125,-0.0186767578125,15.9912109375,275.7568359375,62.07275390625
15590,-2.702392578125,-0.2989501953125,-0.94189453125,-112.36572265625,302.3681640625,45.83740234375
15700,-1.2784423828125,-2.2188720703125,-2.41064453125,-427.79541015625,-237.85400390625,-21.484375
15871,-0.9796142578125,-0.1824951171875,-0.317138671875,-70.556640625,-58.28857421875,5.18798828125
16043,-0.97119140625,-0.1025390625,-0.13720703125,17.2119140625,-11.77978515625,4.94384765625
16152,-1.1392822265625,-0.278564453125,-0.156494140625,14.0380859375,-88.92822265625,-8.30078125
16324,-3.20947265625,0.364501953125,1.5015869140625,190.97900390625,-195.3125,-14.404296875
16434,0.009033203125,-0.5206298828125,-0.2003173828125,62.07275390625,4.5166015625,10.6201171875
16543,-1.004638671875,-0.3714599609375,0.0115966796875,18.5546875,309.9365234375,22.88818359375
16707,-0.700927734375,0.7965087890625,-2.5146484375,-63.78173828125,63.90380859375,44.00634765625
16818,0.0345458984375,-3.9425048828125,-3.1435546875,-427.24609375,-189.453125,-24.47509765625
16943,-1.588134765625,-0.627685546875,-0.376220703125,164.9169921875,-64.453125,16.54052734375
17052,-1.031005859375,-0.0667724609375,-0.2255859375,-1.0986328125,-18.73779296875,3.90625
17162,-1.0137939453125,-0.152099609375,-0.1502685546875,-12.3291015625,-13.97705078125,-4.94384765625
17271,-1.02197265625,-0.3145751953125,-0.1002197265625,11.474609375,-65.73486328125,-7.87353515625
17381,-1.6591796875,-0.117919921875,-0.240478515625,21.1181640625,-133.4228515625,-37.59765625
17490,-1.3548583984375,0.178466796875,-0.3624267578125,-102.294921875,-55.908203125,-13.5498046875
17615,-0.318115234375,-0.14306640625,-0.1038818359375,-81.35986328125,170.0439453125,26.30615234375
17724,-1.369873046875,-0.1517333984375,-0.0335693359375,33.87451171875,330.38330078125,48.2177734375
17834,-0.4849853515625,-0.6876220703125,-2.33154296875,-95.52001953125,175.84228515625,75.13427734375
17948,-3.316650390625,2.7216796875,3.99951171875,255.31005859375,-81.0546875,-16.78466796875
18068,-1.0257568359375,0.374267578125,-0.104248046875,136.23046875,-82.58056640625,6.40869140625
18179,-1.173828125,-0.196044921875,-0.271728515625,-13.61083984375,-35.46142578125,0.8544921875
18289,-0.99560546875,-0.234130859375,-0.1981201171875,1.40380859375,-5.18798828125,-2.44140625
18398,-1.0189208984375,-0.2615966796875,-0.154296875,-0.6103515625,-88.623046875,-14.09912109375
18507,-2.313232421875,-0.0499267578125,0.1944580078125,54.74853515625,-171.20361328125,-33.26416015625
18617,-2.0899658203125,-0.188720703125,-0.34716796875,-152.099609375,-197.08251953125,-22.76611328125
18741,-0.2476806640625,-0.2786865234375,0.1685791015625,-18.37158203125,139.34326171875,19.287109375
18906,-2.246337890625,-0.3564453125,-0.2587890625,55.17578125,366.76025390625,69.64111328125
19017,-0.6256103515625,0.589599609375,-2.4073486328125,-60.4248046875,7.62939453125,22.88818359375
19126,-2.1436767578125,-1.5804443359375,-2.24267578125,-406.8603515625,-255.615234375,8.60595703125
19235,-1.520751953125,-0.6290283203125,-0.2005615234375,118.83544921875,-55.84716796875,16.357421875
19469,-0.75634765625,-0.2305908203125,-0.015380859375,36.68212890625,-43.3349609375,6.53076171875
19579,-1.039306640625,-0.0927734375,-0.2430419921875,50.4150390625,-107.84912109375,-14.16015625
19704,-3.4146728515625,0.3961181640625,1.3194580078125,158.14208984375,-191.95556640625,-22.52197265625
19860,-0.1962890625,-0.203125,0.364013671875,7.01904296875,69.9462890625,6.65283203125
20032,-1.8916015625,-0.235595703125,-0.2579345703125,67.56591796875,370.54443359375,54.87060546875
20141,-0.5953369140625,0.3468017578125,-2.610107421875,-182.06787109375,67.32177734375,50.1708984375
20251,-2.2603759765625,3.1815185546875,-2.0025634765625,-429.38232421875,-167.724609375,-131.34765625
20360,-0.9215087890625,-0.2967529296875,-0.2269287109375,-48.76708984375,-65.185546875,11.474609375
20485,-1.003173828125,-0.367919921875,-0.220458984375,41.93115234375,-5.79833984375,4.57763671875
20594,-0.9434814453125,-0.14892578125,-0.164794921875,6.103515625,-38.51318359375,2.8076171875
20704,-1.179443359375,0.053466796875,-0.2559814453125,19.8974609375,-107.97119140625,-7.38525390625
20822,-2.883544921875,0.4266357421875,1.036865234375,177.978515625,-181.396484375,-10.8642578125
20934,-0.2984619140625,-1.0283203125,-0.6368408203125,62.3779296875,-31.8603515625,-27.64892578125
21153,-2.31787109375,-0.4393310546875,-1.0164794921875,-126.5869140625,297.607421875,80.50537109375
21262,-0.807373046875,-0.0926513671875,-1.6141357421875,66.10107421875,-99.30419921875,2.99072265625
21387,-1.71728515625,2.318603515625,-1.43359375,-366.02783203125,-184.38720703125,-98.876953125
21496,-0.9501953125,-0.303466796875,-0.2318115234375,-39.97802734375,-76.23291015625,6.9580078125
21606,-0.9342041015625,-0.327880859375,-0.2109375,12.87841796875,-3.90625,6.2255859375
21996,-1.3133544921875,-1.248291015625,0.0933837890625,333.984375,-145.20263671875,4.39453125
22116,-0.326171875,-0.200439453125,0.1043701171875,-62.6220703125,125.6103515625,15.5029296875
22282,-2.0950927734375,-0.037841796875,-0.46337890625,59.9365234375,373.291015625,74.76806640625
22392,-0.658203125,0.8294677734375,-2.772705078125,-192.2607421875,36.9873046875,35.58349609375
22502,-2.140869140625,-1.5150146484375,-2.4783935546875,-341.30859375,-274.84130859375,17.4560546875
22674,-1.0716552734375,-0.194091796875,-0.218994140625,-53.77197265625,-49.86572265625,1.15966796875
22783,-1.03759765625,-0.27880859375,-0.1676025390625,5.43212890625,-10.68115234375,-0.8544921875
23172,-0.19873046875,-0.2840576171875,0.05908203125,44.5556640625,-6.28662109375,13.18359375
23344,-0.75048828125,-0.2020263671875,0.001953125,12.75634765625,276.9775390625,13.427734375
23463,-2.38330078125,-0.4154052734375,-1.220458984375,-53.03955078125,320.37353515625,89.90478515625
23574,-1.049072265625,-0.00146484375,-1.43408203125,31.005859375,-132.75146484375,-0.18310546875
23683,-1.1412353515625,0.47607421875,-0.83544921875,-64.14794921875,-166.50390625,3.84521484375
23792,-1.0286865234375,-0.1124267578125,-0.23046875,-51.08642578125,-55.2978515625,3.11279296875
23909,-0.9593505859375,-0.2042236328125,-0.1727294921875,2.13623046875,-16.4794921875,-2.25830078125
24084,-1.135498046875,-0.1907958984375,-0.24853515625,42.8466796875,-119.5068359375,-19.1650390625
24196,-2.6573486328125,-0.21435546875,1.60400390625,228.271484375,-178.3447265625,-27.28271484375
24305,0.0743408203125,-0.4349365234375,-0.1241455078125,0.3662109375,15.19775390625,31.18896484375
24414,-0.552978515625,-0.0225830078125,0.0198974609375,-44.25048828125,229.1259765625,33.75244140625
24580,-1.9168701171875,-0.0853271484375,-1.4290771484375,-95.8251953125,239.8681640625,73.73046875
24753,-0.5887451171875,0.3695068359375,-0.44677734375,47.119140625,-91.97998046875,-1.220703125
24922,-0.9486083984375,-0.203369140625,-0.2071533203125,44.12841796875,3.90625,9.521484375
25031,-1.0294189453125,-0.1080322265625,-0.0848388671875,16.29638671875,-15.0146484375,1.0986328125
25375,-2.1695556640625,-0.2789306640625,-0.239990234375,-187.43896484375,-198.54736328125,-45.22705078125
25484,-0.256591796875,-0.4197998046875,0.2196044921875,-5.55419921875,131.2255859375,18.98193359375
25656,-2.13623046875,-0.037841796875,-1.25927734375,-61.03515625,280.82275390625,94.78759765625
25875,-0.7569580078125,0.4576416015625,-0.7021484375,-31.6162109375,-167.1142578125,-5.06591796875
26047,-0.9344482421875,-0.28759765625,-0.15869140625,9.82666015625,-2.13623046875,7.14111328125
26156,-0.9862060546875,-0.13037109375,-0.044189453125,-1.8310546875,-14.58740234375,8.72802734375
26437,-1.40087890625,-0.6478271484375,0.53759765625,263.61083984375,-138.5498046875,2.13623046875
26562,0.0322265625,0.1689453125,0.455078125,150.390625,54.26025390625,48.828125
26672,-1.3583984375,-0.2303466796875,-0.120849609375,37.29248046875,341.49169921875,61.03515625
26781,-0.7418212890625,-0.1527099609375,-2.5892333984375,-136.90185546875,182.80029296875,71.71630859375
26890,-3.578857421875,2.694091796875,3.99951171875,474.79248046875,-40.52734375,-15.9912109375
27000,-0.642578125,0.0938720703125,0.028564453125,123.96240234375,-89.111328125,7.9345703125
27124,-1.124267578125,-0.0404052734375,-0.2508544921875,-36.07177734375,-31.1279296875,-3.47900390625
27625,-0.26953125,-0.3878173828125,0.28076171875,10.986328125,84.716796875,10.6201171875
27734,-0.7518310546875,-0.09521484375,0.0516357421875,14.46533203125,273.681640625,23.193359375
27858,-2.5745849609375,-0.106201171875,-0.7763671875,-86.9140625,345.76416015625,84.16748046875
28016,-2.0726318359375,-0.599853515625,0.7396240234375,479.55322265625,-69.88525390625,16.4794921875
28125,-1.2003173828125,-0.1593017578125,-0.3089599609375,188.232421875,-56.7626953125,14.83154296875
28812,-0.3958740234375,-0.0821533203125,-0.057861328125,-70.9228515625,188.65966796875,-3.7841796875
28914,-1.466552734375,-0.39697265625,-0.055908203125,3.84521484375,338.80615234375,30.94482421875
29025,-0.643310546875,-0.6893310546875,-2.4217529296875,-65.85693359375,169.49462890625,80.13916015625
29150,-1.49609375,-1.1312255859375,-0.607177734375,311.8896484375,-102.6611328125,19.04296875
29259,-0.972412109375,0.380615234375,-0.1903076171875,167.48046875,-76.66015625,11.77978515625
29369,-0.912353515625,-0.3092041015625,-0.206298828125,35.2783203125,1.46484375,9.82666015625
29588,-1.160400390625,-0.0994873046875,-0.2249755859375,12.5732421875,-101.74560546875,-13.7939453125
29869,-0.0313720703125,-0.1070556640625,0.39599609375,88.134765625,34.85107421875,17.2119140625
29993,-0.6973876953125,-0.0426025390625,0.069091796875,-5.0048828125,276.611328125,13.0615234375
30212,-0.739501953125,-0.0728759765625,-2.052978515625,5.67626953125,-91.30859375,-3.96728515625
30322,-1.4876708984375,0.720947265625,-0.3641357421875,175.6591796875,-56.45751953125,-12.14599609375
30431,-1.098876953125,-0.1441650390625,-0.2471923828125,-10.07080078125,-17.51708984375,3.5400390625
30556,-0.92431640625,-0.203369140625,-0.1170654296875,-21.1181640625,-12.51220703125,4.0283203125
30775,-1.5047607421875,-0.0335693359375,-0.2486572265625,34.11865234375,-137.51220703125,-28.4423828125
30884,-0.970947265625,-1.9588623046875,-0.4171142578125,79.40673828125,-161.43798828125,1.220703125
30993,-0.0799560546875,-0.0845947265625,0.4073486328125,81.72607421875,51.08642578125,31.25
31118,-0.753662109375,0.1485595703125,0.0711669921875,8.4228515625,266.41845703125,20.8740234375
31228,-0.6575927734375,0.1790771484375,-2.85791015625,-133.1787109375,154.84619140625,62.5
31337,-1.1715087890625,-3.4439697265625,-1.895263671875,-246.826171875,-235.4736328125,-7.2021484375
31509,-1.0360107421875,-0.201904296875,-0.276123046875,-47.8515625,-48.095703125,1.8310546875
31618,-1.039794921875,-0.283203125,-0.1837158203125,15.9912109375,-1.220703125,0.30517578125
31956,-2.178955078125,-0.685302734375,2.2254638671875,238.525390625,-161.68212890625,-33.203125
32065,-0.32958984375,-0.3717041015625,0.18603515625,-20.751953125,151.67236328125,20.3857421875
32346,-0.679931640625,0.085693359375,-2.392578125,-7.8125,-26.18408203125,23.3154296875
32471,-2.784912109375,0.1461181640625,-0.977783203125,-372.61962890625,-308.10546875,17.9443359375
32580,-1.27978515625,-0.5123291015625,-0.2764892578125,18.06640625,-63.232421875,11.04736328125
32737,-1.0098876953125,-0.1995849609375,-0.135009765625,-0.8544921875,-13.5498046875,4.82177734375
33029,-0.527587890625,-1.923583984375,-1.559814453125,134.33837890625,-158.8134765625,5.37109375
33138,-0.12939453125,-0.284423828125,0.3338623046875,71.96044921875,35.7666015625,20.751953125
33248,-0.7518310546875,-0.0028076171875,0.07275390625,5.67626953125,274.658203125,14.46533203125
33357,-2.9378662109375,-0.20263671875,-0.666015625,-39.12353515625,376.0986328125,91.85791015625
33529,-2.4293212890625,-0.483642578125,1.500244140625,582.58056640625,-48.88916015625,5.43212890625
33638,-0.8096923828125,0.7066650390625,-0.12939453125,127.38037109375,-80.322265625,-0.732421875
33763,-1.09521484375,-0.1151123046875,-0.2490234375,-28.4423828125,-28.9306640625,2.3193359375
33873,-1.047119140625,-0.175537109375,-0.17138671875,-5.43212890625,-10.8642578125,3.11279296875
33990,-1.056396484375,-0.114501953125,-0.227294921875,38.6962890625,-110.90087890625,-10.92529296875
34101,-3.07275390625,0.39794921875,0.7474365234375,86.97509765625,-188.78173828125,-19.04296875
34257,-0.0880126953125,-0.3135986328125,0.3682861328125,43.5791015625,72.75390625,9.3994140625
34382,-0.738525390625,0.02734375,0.0301513671875,28.13720703125,281.43310546875,23.4375
34492,-2.3592529296875,-0.0045166015625,-1.0264892578125,-98.08349609375,338.56201171875,75.927734375
34601,-0.82421875,-0.1356201171875,-1.7149658203125,56.33544921875,-92.22412109375,-9.033203125
34710,-1.001220703125,-0.063232421875,-1.0361328125,-122.00927734375,-198.3642578125,27.4658203125
34944,-0.9771728515625,-0.1348876953125,-0.1136474609375,0.79345703125,-16.2353515625,6.40869140625
35054,-1.128662109375,-0.2430419921875,-0.16943359375,24.4140625,-86.36474609375,-8.056640625
35225,-2.2366943359375,-0.1575927734375,1.84521484375,225.89111328125,-157.16552734375,-17.333984375
35335,-0.041259765625,-0.5341796875,-0.1309814453125,61.6455078125,24.71923828125,13.5498046875
35507,-1.1424560546875,-0.274169921875,-0.0350341796875,44.73876953125,303.22265625,27.64892578125
35616,-1.9241943359375,-0.0098876953125,-1.1424560546875,-72.81494140625,267.15087890625,81.97021484375
35726,-1.391357421875,-0.533935546875,-0.6722412109375,142.02880859375,-93.017578125,-15.7470703125
35898,-1.0665283203125,-0.0753173828125,-0.1627197265625,-42.17529296875,-66.95556640625,0.9765625
36007,-0.9090576171875,-0.21630859375,-0.2200927734375,3.90625,-6.2255859375,5.92041015625
36116,-0.6795654296875,-0.3397216796875,-0.0263671875,41.3818359375,-41.50390625,10.6201171875
36241,-0.9779052734375,-0.0408935546875,-0.23876953125,46.142578125,-109.4970703125,-13.671875
36454,-1.2080078125,0.144287109375,-0.1827392578125,-15.380859375,-66.5283203125,-19.22607421875
36579,-0.5283203125,0.1002197265625,0.0093994140625,-89.111328125,207.70263671875,10.986328125
36688,-2.6756591796875,-0.0032958984375,-0.9305419921875,-107.84912109375,338.31787109375,78.30810546875
36798,-0.9866943359375,-0.39208984375,-1.4906005859375,90.9423828125,-117.24853515625,-4.8828125
36907,-1.8616943359375,2.0181884765625,-1.413818359375,-252.13623046875,-185.546875,-81.11572265625
37016,-1.0152587890625,-0.2572021484375,-0.198974609375,-46.9970703125,-67.68798828125,6.34765625
37188,-1.0706787109375,-0.0601806640625,-0.1781005859375,4.7607421875,0.0,-3.35693359375
37360,-1.173095703125,0.0562744140625,-0.2763671875,41.93115234375,-117.37060546875,-21.91162109375
37470,-3.2794189453125,0.3604736328125,1.4222412109375,184.75341796875,-168.02978515625,-34.1796875
37751,-1.7657470703125,-0.37890625,-0.143798828125,0.67138671875,353.515625,45.7763671875
37860,-0.4334716796875,0.6029052734375,-3.11962890625,-162.65869140625,120.849609375,74.64599609375
37977,-0.7899169921875,-3.781982421875,-2.8717041015625,-190.5517578125,-196.47216796875,-6.7138671875
38087,-1.509765625,-0.6182861328125,-0.3726806640625,145.32470703125,-68.2373046875,14.5263671875
38196,-0.9296875,-0.12939453125,-0.2508544921875,-20.3857421875,-19.8974609375,3.35693359375
38321,-1.03564453125,-0.103515625,-0.1802978515625,-2.197265625,-19.287109375,10.55908203125
38649,0.0576171875,-0.252197265625,0.269287109375,49.98779296875,28.9306640625,21.66748046875
38758,-0.6475830078125,0.0274658203125,0.0341796875,-1.3427734375,254.82177734375,12.63427734375
38883,-2.82763671875,-0.3375244140625,-0.6134033203125,-7.01904296875,375.732421875,93.505859375
38993,-0.851806640625,-0.0843505859375,-2.26318359375,-34.7900390625,-79.89501953125,0.54931640625
39102,-1.873779296875,2.041015625,-1.010498046875,-162.53662109375,-218.3837890625,4.7607421875
39212,-0.9854736328125,-0.3319091796875,-0.1201171875,-43.51806640625,-62.1337890625,13.48876953125
39321,-0.892578125,-0.35888671875,-0.1949462890625,37.2314453125,-7.38525390625,5.126953125
39445,-1.0665283203125,-0.388916015625,-0.0997314453125,22.03369140625,-69.15283203125,-4.150390625
39555,-1.396240234375,-0.0975341796875,-0.226318359375,20.263671875,-142.51708984375,-22.94921875
39727,-1.45849609375,0.1280517578125,-0.0506591796875,-45.83740234375,-102.60009765625,-11.474609375
39883,-0.7137451171875,-0.073486328125,0.024658203125,-13.5498046875,267.15087890625,10.7421875
