time,accX,accY,accZ,ang_velX,ang_velY,ang_velZ
0,-1.017333984375,-0.01708984375,0.0948486328125,1.40380859375,-1.52587890625,-0.244140625
171,-1.0169677734375,-0.008056640625,0.092529296875,-0.30517578125,-1.0986328125,-0.06103515625
398,-1.0203857421875,-0.00390625,0.0865478515625,1.03759765625,-1.8310546875,-1.52587890625
572,-1.0242919921875,0.008544921875,0.065185546875,-0.79345703125,-4.45556640625,-1.15966796875
738,-1.02392578125,0.0059814453125,0.0594482421875,-3.2958984375,-2.38037109375,2.50244140625
958,-1.0230712890625,0.020751953125,0.0521240234375,5.31005859375,0.244140625,0.9765625
1068,-1.0003662109375,-0.057861328125,0.064453125,-15.07568359375,23.25439453125,2.685546875
1182,-1.0184326171875,-0.01416015625,0.0931396484375,8.1787109375,-3.23486328125,-3.96728515625
1299,-1.027587890625,-0.04833984375,0.09130859375,17.7001953125,-3.0517578125,-6.28662109375
1410,-1.0404052734375,0.0533447265625,0.0819091796875,-0.18310546875,-20.20263671875,-1.40380859375
1972,-1.0355224609375,0.0069580078125,0.0107421875,4.8828125,3.173828125,1.77001953125
2091,-1.02978515625,0.0001220703125,0.010009765625,1.5869140625,0.732421875,0.48828125
2250,-1.0289306640625,0.0247802734375,-0.000732421875,-3.35693359375,0.54931640625,0.0
2484,-1.02734375,0.0159912109375,0.0006103515625,1.220703125,0.3662109375,0.244140625
2593,-1.02392578125,0.011474609375,0.006591796875,1.40380859375,0.6103515625,1.46484375
2812,-1.0167236328125,0.009765625,0.016357421875,3.173828125,0.1220703125,-1.28173828125
2937,-1.03125,0.0294189453125,0.01513671875,0.42724609375,0.54931640625,0.1220703125
3046,-1.020263671875,0.00390625,0.0220947265625,2.5634765625,-1.3427734375,0.244140625
3265,-1.0263671875,0.0084228515625,0.0333251953125,3.2958984375,-0.1220703125,0.48828125
3446,-1.02880859375,0.00927734375,0.015869140625,0.42724609375,-1.40380859375,0.244140625
3666,-1.030029296875,0.015869140625,0.0079345703125,2.44140625,-0.30517578125,0.54931640625
3838,-1.0225830078125,0.004638671875,0.015380859375,0.732421875,-0.91552734375,2.25830078125
3948,-1.02783203125,-0.0147705078125,0.0233154296875,3.72314453125,-0.06103515625,0.9765625
4057,-0.9910888671875,-0.010009765625,0.039794921875,-1.89208984375,-3.2958984375,0.54931640625
4166,-1.022216796875,-0.05712890625,-0.0045166015625,-1.220703125,-28.1982421875,-1.15966796875
4276,-1.0718994140625,0.0418701171875,-0.0936279296875,-5.859375,-21.3623046875,-2.50244140625
4400,-0.986328125,0.0291748046875,-0.1141357421875,1.708984375,-12.02392578125,-3.72314453125
4557,-1.0294189453125,0.0233154296875,-0.11572265625,7.75146484375,2.62451171875,-0.30517578125
4729,-0.86279296875,-0.0035400390625,-0.19580078125,-29.96826171875,25.32958984375,-4.39453125
4846,-1.8026123046875,-0.3597412109375,0.44091796875,8.60595703125,-102.294921875,4.2724609375
4957,-0.7276611328125,0.6416015625,1.1041259765625,33.0810546875,128.2958984375,25.57373046875
5066,-0.986328125,-0.0565185546875,-0.373291015625,-39.306640625,133.23974609375,-21.1181640625
5175,-0.980712890625,-0.2120361328125,-0.515380859375,-7.9345703125,-58.59375,3.0517578125
5300,-1.2777099609375,0.19287109375,-0.103515625,67.9931640625,-82.51953125,30.09033203125
5410,-1.0863037109375,-0.352783203125,0.061279296875,43.39599609375,-39.85595703125,23.0712890625
5519,-0.904296875,-0.1396484375,0.3294677734375,31.73828125,-18.00537109375,9.58251953125
5738,-1.3138427734375,0.055908203125,-0.08251953125,23.25439453125,-84.3505859375,8.97216796875
5972,-1.7847900390625,-0.6278076171875,-0.0799560546875,-198.42529296875,-134.1552734375,10.7421875
6142,-0.6864013671875,0.0635986328125,0.124755859375,-20.01953125,236.87744140625,-19.83642578125
6250,-2.5400390625,-0.10302734375,-0.506103515625,-40.6494140625,368.10302734375,-44.5556640625
6361,-0.859619140625,-0.6790771484375,-2.061767578125,119.93408203125,-35.33935546875,13.61083984375
6533,-1.0111083984375,0.183349609375,-0.0206298828125,30.70068359375,-72.20458984375,28.38134765625
6642,-1.0008544921875,-0.13818359375,0.125732421875,40.4052734375,-46.20361328125,11.90185546875
6752,-1.0374755859375,-0.0810546875,0.09326171875,21.240234375,-50.29296875,13.61083984375
6923,-1.369873046875,0.0789794921875,0.195556640625,0.3662109375,-155.8837890625,30.2734375
7046,-1.9346923828125,-1.232421875,-0.174560546875,66.95556640625,-177.79541015625,-30.2734375
7204,-0.275390625,-0.05712890625,0.080078125,-49.31640625,163.39111328125,-0.67138671875
7314,-1.301513671875,0.02880859375,-0.0782470703125,10.3759765625,327.5146484375,-28.38134765625
7438,-1.660400390625,-0.48193359375,-1.8984375,-104.79736328125,192.93212890625,-41.259765625
7548,-0.6009521484375,-1.1619873046875,-1.636474609375,-325.25634765625,-97.10693359375,52.24609375
7657,-1.0980224609375,0.164306640625,-0.0762939453125,81.54296875,-81.1767578125,28.50341796875
7882,-1.15087890625,0.0076904296875,-0.0020751953125,20.56884765625,-67.19970703125,15.31982421875
8335,-0.56298828125,-0.1812744140625,0.0126953125,-7.38525390625,230.5908203125,-26.611328125
8453,-2.6298828125,-0.3370361328125,-0.5965576171875,-71.22802734375,376.77001953125,-30.76171875
8564,-0.718505859375,-0.751220703125,-2.31005859375,101.74560546875,-36.68212890625,24.4140625
8674,-1.2215576171875,-0.1214599609375,0.01806640625,27.9541015625,-79.04052734375,23.01025390625
9065,-1.4881591796875,0.099853515625,0.0916748046875,-5.615234375,-142.27294921875,38.63525390625
9174,-1.739013671875,-0.2440185546875,0.58154296875,-88.07373046875,-69.88525390625,19.83642578125
9346,-0.5166015625,0.2698974609375,0.0643310546875,-97.35107421875,182.7392578125,-21.05712890625
9455,-1.76123046875,0.080078125,-0.118408203125,18.12744140625,338.56201171875,-62.6220703125
9564,-1.31103515625,-0.763671875,-2.2056884765625,-63.65966796875,152.2216796875,-24.658203125
9689,-1.68994140625,0.2706298828125,-0.2703857421875,-71.6552734375,-62.98828125,38.87939453125
9799,-1.0225830078125,-0.15576171875,0.0628662109375,3.72314453125,-39.9169921875,23.681640625
9908,-1.033203125,-0.1240234375,0.0738525390625,35.15625,-50.10986328125,18.00537109375
10017,-1.1307373046875,0.0047607421875,0.0142822265625,31.005859375,-70.4345703125,12.939453125
10142,-1.400634765625,0.067626953125,0.160400390625,-0.18310546875,-152.34375,20.5078125
10251,-1.36083984375,-1.78125,0.2249755859375,204.16259765625,-178.52783203125,-22.15576171875
10423,-0.5284423828125,-0.0233154296875,0.0089111328125,-17.08984375,213.623046875,-34.66796875
10532,-2.5467529296875,-0.49072265625,-1.0479736328125,-72.6318359375,292.6025390625,-84.228515625
10642,-1.0633544921875,-0.030517578125,-1.321533203125,-34.5458984375,-121.337890625,37.29248046875
10752,-0.9384765625,-0.7445068359375,-0.087158203125,60.11962890625,-136.5966796875,61.21826171875
10861,-1.1082763671875,-0.042724609375,0.0347900390625,-1.52587890625,-38.2080078125,12.39013671875
11095,-0.9913330078125,-0.006591796875,0.2012939453125,18.798828125,-49.31640625,1.46484375
11200,-1.49365234375,0.1593017578125,0.066162109375,-11.8408203125,-165.10009765625,40.58837890625
11317,-1.1051025390625,-1.1990966796875,-0.238037109375,361.083984375,-161.0107421875,7.62939453125
11541,-2.0411376953125,-0.0826416015625,-0.1168212890625,-17.578125,329.40673828125,-50.1708984375
11651,-1.1480712890625,-0.49267578125,-1.6611328125,-46.56982421875,132.9345703125,-10.25390625
11760,-1.7950439453125,2.36328125,-0.30908203125,-180.5419921875,-129.8828125,35.94970703125
11884,-1.2149658203125,-0.008056640625,-0.0166015625,67.87109375,-45.2880859375,19.8974609375
11986,-1.0322265625,-0.073974609375,0.18115234375,30.8837890625,-54.5654296875,11.77978515625
12160,-1.087646484375,-0.095458984375,0.055419921875,11.8408203125,-80.50537109375,11.3525390625
12332,-2.0511474609375,0.337646484375,0.9814453125,234.619140625,-157.65380859375,-7.14111328125
12551,-0.709716796875,0.0565185546875,0.0609130859375,-20.5078125,222.412109375,-23.681640625
12660,-2.22119140625,-0.1158447265625,-0.211181640625,-8.7890625,341.61376953125,-37.17041015625
12785,-0.676025390625,-0.363037109375,-2.20703125,22.27783203125,47.05810546875,15.5029296875
12894,-2.8450927734375,2.80126953125,1.4761962890625,-355.65185546875,-98.388671875,43.39599609375
13004,-1.073974609375,-0.23779296875,0.0972900390625,41.50390625,-64.5751953125,21.17919921875
13222,-1.06201171875,0.04443359375,-0.026123046875,56.94580078125,-52.8564453125,11.90185546875
13347,-1.3736572265625,0.1064453125,-0.0062255859375,-26.30615234375,-128.96728515625,13.00048828125
13456,-1.9716796875,-0.279541015625,1.1246337890625,272.39990234375,-177.42919921875,-4.8828125
13738,-1.1754150390625,0.02783203125,-0.01513671875,-13.12255859375,302.490234375,-42.724609375
13847,-2.404541015625,-0.533935546875,-1.632568359375,-86.24267578125,282.16552734375,-45.34912109375
13957,-2.29345703125,3.992431640625,0.978271484375,215.9423828125,-87.5244140625,5.31005859375
14066,-1.212158203125,0.26513671875,-0.0423583984375,-82.94677734375,-89.35546875,42.78564453125
14191,-1.0770263671875,-0.0618896484375,-0.0130615234375,14.404296875,-51.3916015625,18.06640625
14472,-1.2999267578125,0.0582275390625,0.035888671875,13.73291015625,-122.74169921875,20.08056640625
14581,-1.48681640625,-0.608642578125,0.3282470703125,308.4716796875,-161.4990234375,-4.5166015625
14918,-2.114013671875,-0.224365234375,-0.52392578125,-124.755859375,364.80712890625,-38.75732421875
15028,-0.8865966796875,-0.2291259765625,-2.2830810546875,99.853515625,66.58935546875,10.986328125
15138,-0.775146484375,-0.1614990234375,-0.001220703125,-9.033203125,-91.796875,31.31103515625
15247,-1.03173828125,-0.015625,0.0809326171875,-20.6298828125,-49.25537109375,12.75634765625
15372,-1.0946044921875,-0.12158203125,-0.0428466796875,27.9541015625,-42.1142578125,18.12744140625
15528,-1.2724609375,-0.07080078125,0.0439453125,6.53076171875,-96.13037109375,17.76123046875
15653,-2.052001953125,0.621826171875,0.859130859375,57.861328125,-167.6025390625,25.7568359375
15763,-1.5462646484375,-0.751220703125,-0.4615478515625,-179.931640625,-111.38916015625,-9.1552734375
15981,-2.3824462890625,-0.1976318359375,-0.301025390625,-55.7861328125,379.45556640625,-18.49365234375
16144,-2.9166259765625,3.99951171875,3.893310546875,79.4677734375,-98.44970703125,25.57373046875
16275,-0.7076416015625,-0.009521484375,0.0704345703125,-17.822265625,-85.26611328125,30.33447265625
16371,-1.0836181640625,-0.04931640625,0.0439453125,10.43701171875,-30.2734375,10.009765625
16544,-1.079345703125,0.0269775390625,0.0587158203125,45.5322265625,-41.50390625,7.8125
16716,-1.442138671875,0.0921630859375,0.0926513671875,-4.5166015625,-148.0712890625,7.38525390625
16825,-1.2611083984375,-1.27734375,-0.7396240234375,166.80908203125,-173.828125,-10.009765625
17060,-1.8050537109375,-0.2633056640625,-0.1273193359375,71.96044921875,334.9609375,-38.2080078125
17171,-1.437255859375,-0.922119140625,-1.676025390625,28.4423828125,182.92236328125,-14.6484375
17281,-2.6661376953125,2.7154541015625,-0.2677001953125,259.82666015625,-100.09765625,33.63037109375
17390,-0.5299072265625,-0.2392578125,0.229248046875,122.802734375,-112.548828125,51.08642578125
17499,-1.032470703125,-0.0296630859375,0.1248779296875,-15.5029296875,-38.9404296875,15.7470703125
17846,-1.5247802734375,0.21435546875,0.4854736328125,43.8232421875,-154.84619140625,50.29296875
17957,-0.1558837890625,-0.3927001953125,0.13818359375,3.0517578125,127.50244140625,-14.46533203125
18239,-2.650146484375,-0.46337890625,-0.324951171875,4.33349609375,375.6103515625,-53.77197265625
18351,-0.9110107421875,-0.540771484375,-2.09326171875,115.90576171875,11.71875,3.41796875
18463,-1.7537841796875,0.8494873046875,-0.0714111328125,0.06103515625,-148.5595703125,27.4658203125
18580,-1.06201171875,-0.0941162109375,0.0484619140625,-8.9111328125,-38.75732421875,21.728515625
18805,-1.0184326171875,-0.0994873046875,0.1466064453125,28.80859375,-101.37939453125,2.86865234375
19029,-2.0423583984375,-0.672607421875,-0.0498046875,36.07177734375,-185.9130859375,-5.859375
19305,-1.91162109375,-0.3603515625,-0.137451171875,-55.7861328125,369.384765625,-43.76220703125
19425,-1.3265380859375,-0.349365234375,-1.8162841796875,49.98779296875,159.0576171875,-16.9677734375
19530,-2.502685546875,3.99951171875,2.7952880859375,207.94677734375,-90.27099609375,5.859375
19645,-1.060546875,-0.1904296875,-0.0130615234375,38.6962890625,-51.57470703125,12.0849609375
19870,-1.1490478515625,-0.1370849609375,0.0196533203125,27.4658203125,-55.84716796875,14.22119140625
20097,-2.3897705078125,1.009033203125,1.2061767578125,170.166015625,-168.51806640625,-1.15966796875
20321,-0.609130859375,0.20751953125,0.0986328125,-12.6953125,222.65625,-35.400390625
20541,-1.3392333984375,-0.12841796875,0.417236328125,-49.13330078125,-137.5732421875,53.64990234375
20719,-1.2567138671875,-0.15234375,-0.0318603515625,20.81298828125,-72.6318359375,28.01513671875
20825,-1.139892578125,-0.215087890625,0.3143310546875,56.5185546875,-31.18896484375,25.45166015625
21052,-1.418212890625,0.004150390625,0.11669921875,-3.5400390625,-137.39013671875,30.76171875
21220,-1.3399658203125,-0.9853515625,-0.294677734375,152.099609375,-159.72900390625,18.1884765625
21500,-2.674072265625,-0.5084228515625,-0.7518310546875,-54.5654296875,339.7216796875,-48.76708984375
21614,-0.7933349609375,-0.48876953125,-2.174072265625,21.91162109375,-66.89453125,26.06201171875
21724,-1.6390380859375,0.19677734375,-0.388916015625,65.97900390625,-119.140625,43.5791015625
21837,-1.0269775390625,-0.08154296875,0.1351318359375,8.36181640625,-37.29248046875,15.380859375
22063,-1.174560546875,-0.02294921875,0.0164794921875,3.41796875,-70.25146484375,14.34326171875
22289,-1.809814453125,0.02783203125,1.16162109375,301.7578125,-171.20361328125,-4.7607421875
22519,-1.1676025390625,0.0443115234375,0.0096435546875,-18.98193359375,296.08154296875,-28.564453125
22628,-2.304931640625,-0.517578125,-1.6011962890625,-39.1845703125,277.16064453125,-50.59814453125
22740,-1.2413330078125,-0.3453369140625,-1.3111572265625,-45.5322265625,-127.9296875,53.89404296875
22911,-1.1802978515625,0.15234375,0.0279541015625,24.4140625,-56.2744140625,15.5029296875
23075,-1.0650634765625,-0.09814453125,0.1004638671875,22.705078125,-32.53173828125,12.02392578125
23249,-1.1871337890625,-0.100830078125,0.18115234375,42.29736328125,-102.96630859375,13.73291015625
23418,-1.9022216796875,-0.2740478515625,-0.67236328125,-136.23046875,-148.4375,-6.77490234375
23637,-1.22509765625,-0.138916015625,0.0343017578125,4.2724609375,299.37744140625,-52.91748046875
23750,-1.8697509765625,-0.611083984375,-1.2930908203125,-40.46630859375,274.658203125,-22.27783203125
23862,-2.7347412109375,3.99951171875,1.47998046875,90.576171875,-70.37353515625,15.9912109375
24030,-1.1256103515625,-0.0389404296875,0.100341796875,117.24853515625,-65.0634765625,14.83154296875
24148,-0.97412109375,-0.2672119140625,0.1309814453125,65.7958984375,-57.92236328125,19.59228515625
24316,-1.33544921875,-0.0015869140625,0.0140380859375,-10.7421875,-98.0224609375,22.5830078125
24484,-1.3243408203125,-0.637451171875,-0.082763671875,263.12255859375,-144.4091796875,-3.96728515625
24767,-1.3896484375,0.00390625,-0.0374755859375,27.4658203125,299.62158203125,-41.015625
24876,-1.984130859375,-0.65673828125,-1.7103271484375,-66.10107421875,235.77880859375,-42.3583984375
24991,-2.359130859375,3.99951171875,-1.72509765625,406.73828125,-127.62451171875,19.287109375
25106,-1.183837890625,0.2783203125,0.0047607421875,-35.46142578125,-79.9560546875,29.296875
25551,-2.3670654296875,0.57763671875,1.07666015625,87.0361328125,-175.35400390625,16.78466796875
25834,-0.7486572265625,0.0814208984375,0.083740234375,0.0,251.40380859375,-40.771484375
25946,-3.0557861328125,-0.3271484375,-1.0126953125,-102.294921875,356.5673828125,-43.701171875
26058,-2.1031494140625,-0.1705322265625,-0.59130859375,-296.5087890625,-96.74072265625,42.6025390625
26174,-1.07080078125,-0.2208251953125,0.0263671875,37.78076171875,-63.41552734375,18.798828125
26289,-1.0140380859375,-0.091552734375,0.15380859375,38.39111328125,-56.82373046875,15.625
26401,-1.1092529296875,-0.07470703125,0.0394287109375,1.46484375,-76.5380859375,14.404296875
26676,-1.756591796875,-1.4849853515625,-0.0526123046875,1.15966796875,-192.56591796875,-17.15087890625
26900,-0.8280029296875,0.003662109375,0.0657958984375,-19.04296875,275.93994140625,-38.0859375
27012,-1.2196044921875,-0.6624755859375,-2.0111083984375,3.0517578125,169.37255859375,-8.6669921875
27127,-0.67333984375,-1.3564453125,-1.7205810546875,-412.78076171875,-74.5849609375,3.96728515625
27242,-1.2147216796875,0.0819091796875,0.0087890625,-11.77978515625,-73.486328125,26.18408203125
27354,-1.0389404296875,-0.1138916015625,0.0601806640625,40.10009765625,-48.88916015625,10.1318359375
27466,-1.1021728515625,-0.1458740234375,0.0283203125,20.20263671875,-36.2548828125,12.02392578125
27581,-1.0045166015625,-0.088134765625,0.0521240234375,16.05224609375,-84.65576171875,13.5498046875
27806,-1.70556640625,-1.3956298828125,-0.34130859375,84.228515625,-176.8798828125,-9.09423828125
28025,-2.2158203125,0.0556640625,-0.3072509765625,14.34326171875,356.01806640625,-38.6962890625
28200,-1.145751953125,-0.537353515625,-1.1092529296875,-29.9072265625,-102.5390625,34.0576171875
28313,-0.9822998046875,-0.38037109375,-0.2503662109375,-41.32080078125,-88.9892578125,39.0625
28426,-1.0284423828125,-0.01513671875,0.0172119140625,-30.6396484375,-42.17529296875,28.01513671875
28647,-1.1649169921875,-0.0877685546875,0.0286865234375,21.17919921875,-52.24609375,18.5546875
29094,-0.9757080078125,0.0439453125,0.0655517578125,-23.13232421875,263.73291015625,-28.4423828125
29213,-2.8236083984375,-0.15380859375,-1.1983642578125,-78.91845703125,320.6787109375,-55.7861328125
29327,-1.1075439453125,-0.36376953125,-0.6817626953125,-30.82275390625,-91.49169921875,32.958984375
29435,-1.2677001953125,-0.0189208984375,-0.3912353515625,-99.67041015625,-75.1953125,30.1513671875
29547,-1.0615234375,-0.0166015625,0.028564453125,8.6669921875,-43.8232421875,20.56884765625
29660,-1.03515625,-0.1224365234375,0.0338134765625,20.93505859375,-33.447265625,10.7421875
29777,-1.2762451171875,0.001220703125,0.0147705078125,-10.68115234375,-105.40771484375,11.77978515625
29885,-1.588134765625,0.1282958984375,0.5782470703125,44.73876953125,-158.99658203125,10.25390625
29992,-1.5137939453125,-0.6949462890625,-0.553955078125,-68.359375,-144.53125,-2.9296875
30223,-1.35302734375,-0.0322265625,-0.0482177734375,-17.9443359375,316.10107421875,-30.70068359375
30338,-2.0845947265625,-0.8424072265625,-1.9439697265625,-38.57421875,243.65234375,-51.94091796875
30499,-1.09521484375,-0.3297119140625,-0.1676025390625,166.259765625,-162.65869140625,80.9326171875
30615,-1.0987548828125,-0.092529296875,0.084228515625,25.634765625,-49.25537109375,5.37109375
30784,-1.0499267578125,-0.12744140625,0.0848388671875,14.2822265625,-62.92724609375,6.103515625
30901,-1.3604736328125,0.1514892578125,0.0667724609375,-18.6767578125,-141.9677734375,9.09423828125
31118,-0.23974609375,0.0244140625,0.3948974609375,103.57666015625,35.15625,-2.13623046875
31234,-0.6981201171875,0.06103515625,0.020263671875,-29.052734375,226.86767578125,-24.90234375
31351,-2.640625,-0.1407470703125,-0.4918212890625,-25.2685546875,363.6474609375,-40.6494140625
31460,-0.8026123046875,-0.5877685546875,-1.8826904296875,-4.08935546875,6.2255859375,25.20751953125
31569,-1.2979736328125,0.4415283203125,-0.090087890625,-42.54150390625,-61.21826171875,22.94921875
32077,-1.47216796875,-0.4627685546875,-0.093994140625,294.73876953125,-160.46142578125,-10.3759765625
32303,-0.613525390625,0.0328369140625,0.059814453125,-41.6259765625,231.14013671875,-13.97705078125
32416,-2.421142578125,-0.111572265625,-0.3883056640625,-44.0673828125,370.17822265625,-40.1611328125
32528,-2.61865234375,0.8577880859375,-1.7701416015625,277.7099609375,-130.4931640625,28.38134765625
32865,-1.1072998046875,-0.132080078125,0.027099609375,25.0244140625,-36.2548828125,14.404296875
33147,-2.6656494140625,1.115966796875,1.58984375,208.19091796875,-172.36328125,5.4931640625
33376,-1.0029296875,-0.0540771484375,0.09521484375,-8.30078125,297.9736328125,-27.40478515625
33488,-2.406005859375,-0.37109375,-1.42333984375,-99.7314453125,302.42919921875,-70.1904296875
33600,-1.0460205078125,-0.451171875,-1.462890625,-38.6962890625,-106.8115234375,37.59765625
33768,-1.0404052734375,-0.0504150390625,0.01025390625,51.81884765625,-69.7021484375,28.62548828125
34161,-1.31298828125,0.210205078125,0.062744140625,-5.859375,-119.5068359375,26.2451171875
34277,-1.7691650390625,-1.8607177734375,-0.6961669921875,295.654296875,-194.03076171875,-16.2353515625
34502,-1.0972900390625,0.0157470703125,0.072998046875,-17.27294921875,298.33984375,-31.494140625
34615,-2.036376953125,-0.6312255859375,-1.8175048828125,-41.19873046875,256.591796875,-49.6826171875
34724,-1.2840576171875,-0.069091796875,-1.042236328125,-86.97509765625,-135.19287109375,48.2177734375
34836,-1.4674072265625,-0.452392578125,-0.463134765625,-68.42041015625,-96.435546875,25.634765625
34948,-1.05859375,-0.0628662109375,0.041748046875,4.08935546875,-44.37255859375,18.00537109375
35060,-1.0657958984375,-0.148681640625,0.00390625,26.123046875,-38.330078125,13.916015625
35287,-2.1300048828125,0.6092529296875,0.9644775390625,96.0693359375,-177.79541015625,5.55419921875
35392,-0.3370361328125,-0.0770263671875,0.07568359375,-37.17041015625,203.125,-5.67626953125
35680,-2.8900146484375,-0.5054931640625,-1.1103515625,-88.9892578125,351.86767578125,-40.58837890625
35792,-0.7745361328125,-0.482421875,-1.7364501953125,-71.96044921875,-94.6044921875,47.36328125
35905,-0.98779296875,-0.3565673828125,-0.4522705078125,137.6953125,-158.447265625,57.92236328125
36019,-1.054931640625,0.1046142578125,0.0260009765625,0.42724609375,-45.2880859375,18.37158203125
36135,-1.0491943359375,-0.0714111328125,-0.0072021484375,14.892578125,-45.166015625,13.12255859375
36244,-1.1038818359375,0.022216796875,0.0137939453125,7.26318359375,-96.19140625,16.66259765625
36357,-2.0364990234375,0.198486328125,0.59619140625,27.40478515625,-179.50439453125,24.4140625
36469,-1.7930908203125,-0.6884765625,-0.55419921875,-114.990234375,-97.59521484375,16.41845703125
36750,-2.85791015625,-0.114013671875,-0.1846923828125,-68.7255859375,360.77880859375,-76.23291015625
36861,-0.80126953125,-0.8321533203125,-2.035888671875,42.29736328125,8.36181640625,11.90185546875
36977,-0.6524658203125,-0.4464111328125,-0.5714111328125,230.1025390625,-155.1513671875,84.228515625
37085,-1.0595703125,0.0010986328125,0.068603515625,-11.23046875,-59.75341796875,15.7470703125
37312,-1.22216796875,-0.0115966796875,0.094482421875,27.7099609375,-66.5283203125,9.033203125
37425,-1.4898681640625,0.1258544921875,0.1236572265625,-9.6435546875,-149.169921875,18.798828125
37592,-1.5482177734375,-0.460693359375,-0.065673828125,-214.66064453125,-98.69384765625,20.32470703125
37817,-1.595703125,0.0748291015625,-0.0277099609375,-33.3251953125,333.67919921875,-25.87890625
37931,-0.979248046875,-0.5687255859375,-1.721923828125,-48.095703125,-80.078125,37.53662109375
38044,-1.0537109375,-0.6212158203125,-0.486328125,99.365234375,-138.48876953125,48.4619140625
38155,-1.024169921875,0.0091552734375,0.0924072265625,-25.45166015625,-41.07666015625,18.9208984375
38270,-1.0281982421875,-0.0748291015625,0.0548095703125,17.39501953125,-47.607421875,12.75634765625
38382,-1.132080078125,-0.0185546875,0.0347900390625,10.68115234375,-74.8291015625,7.62939453125
38550,-1.96484375,0.401611328125,0.7437744140625,44.7998046875,-178.955078125,30.76171875
38662,-1.903564453125,-0.310546875,-0.1256103515625,-293.9453125,-93.26171875,22.27783203125
38889,-3.035888671875,-0.0517578125,-0.2706298828125,-52.18505859375,378.11279296875,-53.22265625
38995,-0.830322265625,-0.8397216796875,-2.1571044921875,73.3642578125,-23.8037109375,13.7939453125
39115,-2.0701904296875,0.939208984375,-0.3011474609375,-205.50537109375,-119.44580078125,33.02001953125
39228,-1.0667724609375,-0.06787109375,0.0220947265625,49.072265625,-48.64501953125,10.986328125
39396,-1.0272216796875,-0.085693359375,0.093505859375,8.97216796875,-64.94140625,19.287109375
39508,-1.2352294921875,-0.0697021484375,-0.0396728515625,-5.18798828125,-103.21044921875,20.32470703125
39620,-1.427001953125,0.17578125,0.268798828125,3.72314453125,-158.3251953125,27.587890625
39733,-0.9830322265625,0.516357421875,0.540283203125,-14.892578125,21.728515625,10.8642578125
39896,-0.96533203125,0.0718994140625,0.05712890625,-15.31982421875,288.330078125,-23.62060546875
